aX,aY,aZ,gX,gY,gZ
-0.438,-0.635,2.464,143.982,-121.948,-38.696
-0.496,-0.749,2.630,117.737,-98.694,-39.673
-0.411,-0.697,2.561,72.693,-70.618,-35.950
-0.221,-0.540,2.247,18.799,-39.856,-30.090
0.009,-0.301,1.768,-30.701,-11.780,-22.217
0.235,-0.013,1.220,-67.993,10.254,-10.681
0.427,0.274,0.733,-84.412,26.855,0.244
0.580,0.523,0.367,-81.238,37.292,7.019
0.712,0.739,0.115,-68.298,41.321,8.484
0.816,0.917,-0.066,-54.199,38.879,5.127
0.872,1.017,-0.169,-41.077,30.090,-0.488
0.885,1.054,-0.185,-25.940,16.418,-6.897
0.863,1.023,-0.108,-8.850,3.601,-13.489
0.844,0.959,0.027,8.240,-5.127,-16.785
0.785,0.858,0.194,21.729,-10.132,-17.456
0.724,0.747,0.349,30.579,-14.038,-14.893
0.644,0.643,0.493,33.875,-17.029,-13.489
0.585,0.544,0.608,34.180,-19.226,-12.878
0.563,0.459,0.675,30.945,-20.569,-11.658
0.555,0.401,0.708,26.184,-19.714,-9.155
0.558,0.361,0.719,22.583,-16.663,-5.249
0.569,0.343,0.709,19.409,-11.597,-2.563
0.588,0.343,0.688,15.869,-8.667,-0.793
0.604,0.354,0.656,11.658,-8.484,0.000
0.611,0.368,0.630,7.874,-9.094,-0.366
0.611,0.384,0.616,5.615,-9.033,-1.648
0.609,0.401,0.616,3.967,-9.521,-3.052
0.601,0.421,0.617,1.831,-10.559,-4.700
0.607,0.451,0.605,-1.221,-11.536,-6.653
0.604,0.474,0.588,-3.906,-11.780,-8.545
0.610,0.494,0.569,-4.944,-10.498,-9.460
0.613,0.509,0.547,-5.005,-8.240,-8.728
0.614,0.526,0.531,-4.578,-6.531,-7.935
0.615,0.537,0.519,-3.357,-5.615,-7.629
0.621,0.543,0.515,-1.892,-5.249,-7.446
0.626,0.542,0.514,-0.488,-3.906,-7.507
0.626,0.538,0.517,1.526,-2.197,-6.531
0.631,0.536,0.516,3.418,-1.038,-5.493
0.630,0.541,0.520,4.700,-0.793,-5.127
0.633,0.541,0.529,6.104,-1.709,-5.493
0.635,0.537,0.535,5.859,-2.747,-6.531
0.647,0.535,0.527,5.371,-3.113,-6.714
0.665,0.547,0.525,5.066,-3.174,-5.310
0.641,0.517,0.508,4.883,-2.686,-4.395
0.665,0.533,0.521,7.507,-3.906,-2.563
0.651,0.522,0.520,8.545,-4.456,-1.465
0.645,0.521,0.525,9.033,-5.066,-0.549
0.637,0.512,0.536,9.583,-6.104,-0.061
0.630,0.504,0.546,8.972,-7.141,0.000
0.621,0.494,0.557,8.606,-8.301,-0.061
0.610,0.485,0.570,8.545,-8.667,-0.061
0.605,0.480,0.581,8.728,-7.812,0.122
0.594,0.478,0.585,8.118,-6.775,0.610
0.590,0.482,0.580,7.507,-5.981,0.977
0.584,0.482,0.571,7.202,-5.737,1.099
0.578,0.486,0.570,8.057,-5.859,1.099
0.580,0.488,0.577,9.094,-5.310,0.061
0.578,0.484,0.588,9.521,-4.578,-0.793
0.576,0.478,0.600,9.094,-4.395,-1.221
0.574,0.472,0.608,7.812,-3.906,-1.038
0.569,0.463,0.619,6.836,-2.930,-0.854
0.567,0.456,0.628,6.165,-1.831,-0.732
0.561,0.453,0.638,4.700,-0.549,-0.793
0.554,0.445,0.646,3.357,0.671,-0.916
0.550,0.440,0.649,1.892,2.136,-1.343
0.550,0.439,0.641,0.244,3.540,-1.526
0.551,0.437,0.631,-0.427,4.944,-1.526
0.556,0.439,0.629,-0.305,6.470,-1.831
0.563,0.437,0.630,-0.610,7.751,-2.380
0.569,0.438,0.634,-1.160,9.033,-2.747
0.567,0.432,0.647,-2.380,9.827,-3.052
0.555,0.425,0.671,-3.845,10.498,-3.052
0.534,0.414,0.702,-5.249,11.597,-3.113
0.504,0.398,0.743,-6.836,13.184,-3.174
0.475,0.378,0.783,-8.667,15.564,-3.906
0.443,0.353,0.823,-10.803,17.944,-5.249
0.418,0.333,0.853,-13.977,20.508,-6.958
0.397,0.312,0.880,-18.005,23.254,-8.850
0.382,0.290,0.902,-22.644,26.550,-10.681
0.377,0.275,0.914,-27.344,30.457,-11.658
0.374,0.264,0.919,-31.677,34.851,-11.841
0.374,0.258,0.922,-35.706,41.016,-11.414
0.371,0.256,0.927,-40.222,46.753,-10.864
0.377,0.256,0.924,-45.715,52.307,-10.986
0.393,0.258,0.907,-52.124,57.556,-11.353
0.416,0.261,0.886,-58.289,62.805,-11.353
0.438,0.272,0.859,-64.026,68.054,-11.169
0.464,0.284,0.826,-69.458,73.608,-10.437
0.493,0.302,0.782,-74.890,78.979,-9.033
0.518,0.316,0.726,-79.956,84.229,-7.019
0.549,0.340,0.651,-83.496,89.600,-4.578
0.584,0.367,0.578,-84.839,94.971,-2.625
0.618,0.393,0.507,-84.412,100.098,-0.671
0.649,0.416,0.445,-81.604,105.347,2.075
0.661,0.439,0.400,-77.087,111.572,5.676
0.675,0.464,0.357,-71.838,116.760,7.751
0.684,0.485,0.315,-67.261,119.202,7.568
0.692,0.490,0.282,-63.110,120.483,5.737
0.701,0.492,0.266,-60.303,120.239,2.747
0.710,0.494,0.242,-60.547,117.737,-0.549
0.721,0.502,0.200,-62.622,114.929,-2.930
0.726,0.508,0.163,-63.354,114.746,-3.723
0.737,0.511,0.147,-62.866,114.197,-3.906
0.759,0.513,0.149,-64.209,112.488,-3.845
0.771,0.510,0.164,-70.557,110.779,-1.465
0.721,0.483,0.104,-82.153,109.009,1.648
0.742,0.505,0.047,-90.637,105.957,4.456
0.726,0.504,-0.021,-96.558,105.835,6.897
0.714,0.512,-0.099,-99.976,106.934,9.277
0.707,0.530,-0.166,-99.121,108.887,10.925
0.700,0.542,-0.216,-96.130,109.375,10.193
0.695,0.546,-0.250,-91.919,108.032,6.592
0.687,0.536,-0.265,-89.600,104.919,1.831
0.700,0.530,-0.295,-91.309,98.816,-3.479
0.723,0.546,-0.319,-94.788,94.788,-6.226
0.667,0.505,-0.369,-97.595,95.825,-4.395
0.701,0.522,-0.399,-97.595,94.116,-2.258
0.678,0.530,-0.437,-97.595,93.018,-0.488
0.668,0.511,-0.465,-99.060,93.262,1.526

0.508,0.688,-1.488,249.023,-84.351,19.470
0.451,0.674,-1.397,262.390,-99.670,10.925
0.407,0.607,-1.225,277.039,-128.479,-10.681
0.382,0.527,-1.028,283.630,-155.273,-37.415
0.373,0.392,-0.760,287.354,-176.392,-61.279
0.360,0.253,-0.452,287.292,-201.111,-83.435
0.359,0.108,-0.121,280.273,-223.389,-101.074
0.406,0.011,0.129,265.808,-240.173,-112.427
0.463,-0.017,0.296,245.605,-246.704,-111.389
0.490,-0.038,0.375,227.722,-242.737,-100.464
0.477,-0.068,0.422,216.797,-233.215,-81.421
0.420,-0.119,0.523,218.811,-222.168,-59.387
0.311,-0.249,0.670,229.736,-210.510,-39.124
0.134,-0.431,0.914,244.629,-200.134,-23.804
-0.114,-0.720,1.256,260.315,-191.467,-15.381
-0.460,-1.099,1.681,270.752,-184.875,-17.456
-0.818,-1.615,2.268,272.095,-177.551,-31.921
-1.181,-2.199,3.012,257.935,-170.837,-54.565
-1.274,-2.684,3.736,225.037,-154.236,-76.111
-1.115,-2.892,4.000,176.392,-118.530,-91.309
-0.631,-2.402,3.778,62.744,-76.050,-79.407
-0.235,-1.705,2.718,-94.727,-33.142,-39.368
0.088,-0.887,1.461,-191.956,10.925,7.019
0.384,-0.163,0.467,-210.144,47.119,46.997
0.657,0.519,-0.136,-173.645,63.293,67.444
0.896,1.107,-0.480,-127.869,60.486,64.758
1.036,1.494,-0.685,-92.957,42.236,45.715
1.080,1.666,-0.760,-62.683,17.090,19.348
1.045,1.632,-0.633,-26.123,-5.676,-6.226
0.944,1.435,-0.314,13.794,-23.071,-25.635
0.801,1.159,0.096,48.645,-35.828,-37.781
0.648,0.832,0.497,71.472,-44.922,-45.044
0.509,0.497,0.835,82.031,-48.767,-47.913
0.398,0.193,1.106,82.336,-48.157,-45.837
0.313,-0.045,1.285,73.120,-43.945,-40.222
0.265,-0.207,1.358,58.350,-37.781,-31.738
0.248,-0.294,1.354,41.565,-30.151,-23.254
0.270,-0.312,1.297,26.917,-21.790,-16.174
0.328,-0.261,1.197,13.184,-14.954,-11.292
0.389,-0.179,1.071,0.549,-9.644,-8.423
0.469,-0.072,0.950,-7.507,-5.676,-6.042
0.527,0.036,0.851,-11.902,-2.563,-3.845
0.560,0.139,0.780,-13.794,-0.244,-1.404
0.585,0.240,0.721,-14.587,1.343,1.709
0.597,0.347,0.651,-14.404,1.160,4.028
0.584,0.424,0.585,-13.123,0.427,5.066
0.555,0.459,0.569,-7.629,0.122,4.089
0.540,0.473,0.600,1.099,-0.488,2.625
0.510,0.461,0.649,7.385,-0.916,0.854
0.483,0.425,0.694,11.536,-1.404,-1.770
0.465,0.384,0.738,15.076,-0.732,-3.845
0.459,0.343,0.771,16.907,0.671,-5.676
0.467,0.312,0.795,16.479,2.380,-7.507
0.479,0.282,0.811,14.893,3.479,-7.202
0.490,0.258,0.824,12.634,3.906,-6.165
0.495,0.232,0.827,10.193,4.517,-5.432
0.496,0.215,0.836,7.690,5.249,-4.395
0.512,0.208,0.837,7.385,6.287,-2.869
0.533,0.203,0.836,8.118,8.057,-1.038
0.526,0.198,0.832,9.033,9.399,0.977
0.506,0.191,0.842,9.766,10.742,1.160
0.497,0.178,0.855,10.742,11.597,-0.549
0.505,0.168,0.854,10.864,11.353,-2.686
0.512,0.154,0.850,9.338,10.742,-3.174
0.531,0.137,0.867,6.836,11.414,-2.747
0.509,0.114,0.888,3.967,12.390,-1.587
0.516,0.095,0.904,2.747,13.306,0.488
0.465,0.061,0.932,1.099,14.771,0.549
0.443,0.037,0.960,-1.587,15.930,0.122
0.415,0.011,0.997,-7.385,16.235,0.549
0.370,-0.020,1.045,-16.846,16.907,-0.183
0.358,-0.031,1.059,-22.766,21.667,3.906
0.356,-0.043,1.087,-28.687,28.015,6.165
0.303,-0.062,1.123,-34.363,31.311,3.235
0.283,-0.080,1.146,-40.100,33.081,0.732
0.275,-0.092,1.157,-45.715,35.461,-2.625
0.273,-0.104,1.157,-52.917,39.124,-5.737
0.291,-0.105,1.142,-60.486,43.884,-7.202
0.306,-0.107,1.130,-68.542,50.537,-7.202
0.308,-0.104,1.112,-77.209,57.495,-7.202
0.324,-0.086,1.086,-84.595,64.209,-6.592
0.331,-0.071,1.059,-92.041,70.251,-7.812
0.341,-0.051,1.026,-99.731,76.111,-8.850
0.355,-0.032,0.990,-106.506,81.360,-8.545
0.361,-0.007,0.954,-112.915,86.243,-8.301
0.368,0.011,0.911,-118.469,91.003,-9.460
0.380,0.035,0.868,-122.314,95.642,-12.634
0.397,0.057,0.835,-124.878,100.464,-17.517
0.411,0.082,0.793,-126.587,105.347,-22.949
0.423,0.112,0.753,-126.465,108.582,-28.076
0.443,0.144,0.716,-124.451,111.084,-34.241
0.455,0.166,0.685,-122.070,113.220,-41.809
0.473,0.184,0.670,-120.483,115.723,-49.927
0.497,0.198,0.654,-120.483,117.859,-58.533
0.526,0.206,0.630,-122.192,118.408,-65.063
0.528,0.197,0.628,-125.549,119.202,-70.740
0.535,0.188,0.635,-129.028,122.009,-74.951
0.552,0.178,0.624,-134.216,126.465,-77.087
0.575,0.157,0.591,-140.686,133.850,-76.843
0.586,0.135,0.536,-146.851,142.822,-72.327
0.567,0.119,0.511,-150.146,152.222,-62.439
0.524,0.102,0.497,-153.870,162.537,-53.040
0.474,0.084,0.500,-160.400,168.945,-47.546
0.409,0.035,0.523,-172.729,171.265,-47.974
0.390,-0.023,0.521,-190.186,172.791,-54.138
0.359,-0.096,0.501,-208.801,174.805,-60.120
0.316,-0.198,0.454,-226.379,182.617,-61.096
0.274,-0.315,0.361,-244.629,195.923,-61.035
0.212,-0.470,0.192,-265.564,209.351,-58.655
0.121,-0.645,-0.067,-288.940,221.802,-52.917
0.042,-0.790,-0.411,-313.354,230.469,-47.974
-0.007,-0.913,-0.854,-337.036,233.765,-48.279
-0.060,-1.017,-1.300,-345.032,235.962,-51.819
-0.032,-1.065,-1.747,-345.642,237.671,-54.810
0.074,-1.096,-2.135,-340.210,235.657,-59.204
0.302,-1.098,-2.485,-333.618,223.694,-65.735
0.625,-1.006,-2.795,-325.684,200.012,-70.068
1.006,-0.809,-3.131,-307.312,171.570,-70.313
1.448,-0.349,-3.382,-267.761,143.250,-60.974

1.839,0.665,-3.510,-138.367,115.112,9.644
1.634,0.942,-3.209,-57.007,97.839,46.936
1.193,0.868,-2.568,23.010,71.045,60.425
0.812,0.584,-1.632,81.482,38.330,43.213
0.606,0.225,-0.783,115.967,1.648,6.409
0.610,-0.111,-0.199,99.548,-20.081,-22.705
0.656,-0.269,0.015,62.378,-27.527,-34.058
0.752,-0.273,-0.025,18.677,-20.081,-24.963
0.851,-0.177,-0.296,-11.230,-3.052,-7.324
0.898,-0.041,-0.591,-22.583,12.512,12.146
0.891,0.095,-0.848,-23.010,24.658,30.640
0.838,0.198,-0.995,-13.184,32.837,44.922
0.765,0.246,-1.027,0.977,34.058,49.438
0.694,0.240,-0.952,13.733,28.259,43.762
0.656,0.189,-0.821,20.325,18.799,31.616
0.657,0.124,-0.704,19.165,8.789,18.372
0.685,0.082,-0.624,13.489,1.587,7.568
0.719,0.052,-0.571,7.690,-2.075,1.038
0.776,0.032,-0.550,3.418,-3.723,-2.991
0.836,0.023,-0.566,-1.038,-5.493,-5.371
0.886,0.022,-0.603,-4.211,-6.653,-6.104
0.908,0.032,-0.625,-3.052,-5.859,-3.723
0.910,0.045,-0.635,0.732,-2.869,0.854
0.899,0.070,-0.650,4.089,0.061,6.409
0.894,0.097,-0.665,6.226,1.160,10.376
0.853,0.123,-0.707,6.775,0.610,12.390
0.774,0.105,-0.640,6.653,-1.038,11.597
0.799,0.106,-0.637,11.475,-1.526,11.047
0.792,0.093,-0.623,11.230,-2.747,9.338
0.778,0.088,-0.631,8.850,-4.395,8.911
0.776,0.095,-0.667,8.484,-5.432,9.888
0.772,0.112,-0.695,9.705,-5.676,10.010
0.752,0.122,-0.706,12.573,-5.554,11.292
0.726,0.124,-0.693,17.090,-4.578,13.123
0.705,0.117,-0.660,20.691,-4.395,12.024
0.695,0.109,-0.638,21.790,-5.737,9.460
0.703,0.109,-0.635,20.874,-7.568,7.080
0.724,0.109,-0.650,19.165,-9.277,5.310
0.746,0.108,-0.673,18.921,-10.315,5.005
0.770,0.111,-0.709,19.897,-11.108,6.226
0.792,0.120,-0.757,21.667,-11.780,8.606
0.807,0.135,-0.804,25.330,-12.634,11.658
0.800,0.148,-0.824,30.945,-13.794,15.015
0.778,0.162,-0.807,38.086,-15.442,18.066
0.752,0.170,-0.770,44.373,-16.235,20.508
0.717,0.172,-0.713,48.889,-16.724,21.790
0.698,0.162,-0.655,51.636,-17.639,21.179
0.707,0.158,-0.625,52.124,-18.311,20.142
0.727,0.155,-0.626,50.537,-19.287,20.264
0.745,0.163,-0.655,49.011,-19.592,21.301
0.764,0.172,-0.691,50.049,-19.409,22.888
0.781,0.176,-0.728,53.406,-18.860,24.292
0.776,0.177,-0.766,56.396,-19.775,25.879
0.760,0.198,-0.786,60.425,-21.851,27.344
0.742,0.223,-0.763,66.345,-23.132,27.832
0.721,0.239,-0.732,72.205,-23.499,27.649
0.711,0.251,-0.721,75.439,-24.231,27.710
0.708,0.260,-0.732,76.965,-25.574,27.222
0.704,0.274,-0.746,78.918,-27.954,26.184
0.716,0.278,-0.748,82.153,-30.029,24.231
0.732,0.260,-0.751,85.815,-32.349,22.034
0.731,0.247,-0.755,89.111,-36.377,20.203
0.738,0.241,-0.734,92.468,-40.344,16.846
0.757,0.238,-0.687,96.252,-43.945,14.771
0.767,0.239,-0.648,97.900,-46.326,16.418
0.768,0.269,-0.634,97.656,-47.546,20.386
0.763,0.291,-0.630,99.304,-47.302,24.414
0.764,0.297,-0.639,102.295,-46.204,27.649
0.753,0.301,-0.670,103.638,-46.387,29.480
0.742,0.320,-0.679,105.896,-48.767,28.259
0.743,0.339,-0.662,110.107,-52.368,24.536
0.742,0.344,-0.661,112.488,-56.580,20.325
0.735,0.362,-0.669,112.549,-61.218,16.907
0.749,0.390,-0.684,114.197,-65.552,13.062
0.775,0.413,-0.723,116.272,-68.054,11.841
0.780,0.429,-0.768,120.789,-68.359,15.381
0.759,0.434,-0.776,129.333,-67.749,21.179
0.737,0.433,-0.781,138.855,-67.566,24.780
0.724,0.440,-0.832,145.142,-68.970,25.696
0.709,0.457,-0.879,149.658,-71.106,26.123
0.710,0.489,-0.922,155.396,-74.951,24.536
0.737,0.530,-0.991,163.757,-77.820,21.973
0.751,0.567,-1.021,176.208,-78.674,22.156
0.779,0.609,-1.041,191.895,-77.271,24.780
0.798,0.657,-1.096,206.848,-76.904,29.846
0.772,0.711,-1.118,221.436,-78.491,37.476
0.733,0.731,-1.099,237.061,-79.834,42.358
0.718,0.766,-1.109,248.413,-84.961,41.382
0.687,0.794,-1.123,254.395,-93.140,37.964
0.691,0.865,-1.194,255.981,-104.736,31.189
0.656,0.932,-1.226,256.287,-117.859,22.217
0.597,0.905,-1.139,262.024,-134.460,8.484
0.544,0.793,-0.937,272.705,-158.630,-14.465
0.532,0.671,-0.680,279.236,-184.631,-42.908
0.505,0.503,-0.417,274.475,-207.825,-66.772
0.453,0.333,-0.177,265.137,-229.858,-87.524
0.414,0.166,0.070,251.648,-249.939,-105.774
0.367,-0.006,0.352,234.009,-270.325,-117.981
0.275,-0.155,0.564,209.961,-286.865,-123.413
0.159,-0.322,0.722,188.171,-292.664,-122.681
-0.004,-0.554,0.846,178.833,-289.307,-113.708
-0.233,-0.888,1.066,186.646,-280.701,-98.572
-0.616,-1.416,1.493,216.125,-265.076,-80.688
-1.322,-2.213,2.271,261.108,-242.920,-66.284
-2.125,-3.295,3.215,303.589,-210.693,-62.500
-2.444,-4.000,4.000,334.900,-164.673,-75.500
-2.024,-4.000,4.000,372.375,-100.586,-91.614
-1.329,-3.971,4.000,197.571,-28.809,-68.909
-0.885,-2.981,3.854,-126.770,7.568,-31.616
-0.177,-1.907,1.938,-352.539,47.424,1.221
0.180,-0.327,-0.182,-434.143,69.275,23.865
0.652,0.516,-0.969,-335.999,84.839,50.415
1.137,1.396,-1.172,-178.101,106.323,71.472
1.352,2.039,-1.084,-66.101,93.872,72.815
1.263,2.318,-1.010,-16.479,58.655,60.791
1.068,2.301,-0.915,14.526,23.743,28.625
0.846,1.992,-0.629,52.856,-9.338,-14.221
0.666,1.525,-0.152,92.957,-39.490,-56.274
0.524,0.973,0.391,126.160,-60.669,-84.167

-0.590,-0.370,-2.451,-333.374,266.907,48.096
-0.494,-0.159,-2.852,-312.500,260.986,28.015
-0.190,0.085,-3.211,-289.124,243.896,0.366
0.466,0.344,-3.599,-265.747,209.290,-39.612
1.348,0.710,-3.985,-242.004,152.771,-89.050
2.139,0.982,-4.000,-205.627,77.026,-119.690
2.173,1.206,-3.995,-128.662,1.587,-112.305
1.670,1.001,-3.154,-9.888,-29.053,-62.683
1.099,0.640,-1.849,126.038,-17.944,-9.399
0.649,0.241,-0.765,199.158,-1.831,21.606
0.387,-0.296,0.194,190.674,-5.493,19.714
0.320,-0.155,0.160,160.950,-13.977,3.723
0.432,-0.450,0.303,85.083,-20.142,-14.832
0.516,-0.256,0.151,28.503,-17.212,-21.667
0.561,-0.192,-0.120,-12.878,0.183,-7.996
0.647,-0.061,-0.398,-30.090,14.282,0.793
0.754,0.071,-0.613,-37.720,19.836,2.930
0.820,0.163,-0.798,-41.870,18.250,2.991
0.837,0.246,-0.919,-36.377,17.212,6.287
0.813,0.294,-0.953,-23.682,15.564,9.827
0.778,0.300,-0.873,-7.019,10.925,8.362
0.761,0.295,-0.742,4.211,5.188,2.808
0.765,0.293,-0.639,6.714,-0.183,-2.930
0.779,0.297,-0.582,6.531,-3.174,-7.324
0.809,0.277,-0.553,6.287,-4.456,-11.963
0.860,0.273,-0.555,6.531,-6.226,-15.625
0.922,0.264,-0.607,5.859,-9.827,-19.653
0.974,0.269,-0.687,3.418,-13.062,-20.935
1.005,0.292,-0.755,4.639,-15.503,-19.470
1.005,0.321,-0.790,10.071,-18.799,-15.259
0.977,0.354,-0.807,17.090,-21.729,-9.033
0.931,0.383,-0.826,22.583,-23.682,-3.479
0.885,0.413,-0.838,27.954,-26.367,-0.122
0.844,0.426,-0.831,36.072,-29.114,1.892
0.803,0.421,-0.810,46.692,-31.860,2.075
0.781,0.424,-0.786,55.359,-34.119,1.221
0.767,0.402,-0.757,63.416,-36.377,-1.160
0.754,0.387,-0.730,69.885,-39.185,-3.906
0.748,0.346,-0.697,72.815,-41.443,-7.324
0.758,0.327,-0.683,73.547,-43.701,-10.376
0.771,0.296,-0.674,74.402,-45.532,-12.451
0.767,0.295,-0.657,76.294,-47.302,-12.390
0.777,0.268,-0.641,77.942,-47.974,-11.108
0.788,0.285,-0.615,79.712,-47.913,-8.240
0.760,0.260,-0.599,80.139,-47.241,-5.371
0.794,0.273,-0.563,82.092,-46.997,-2.991
0.793,0.283,-0.557,81.421,-46.814,-0.671
0.798,0.288,-0.537,80.078,-46.692,1.343
0.799,0.278,-0.514,79.346,-46.631,1.892
0.806,0.275,-0.497,76.904,-46.875,1.587
0.819,0.271,-0.494,72.876,-47.974,0.977
0.841,0.273,-0.494,69.946,-48.706,0.916
0.851,0.281,-0.500,67.566,-48.523,3.174
0.840,0.292,-0.481,66.467,-47.913,7.324
0.837,0.291,-0.445,67.444,-46.814,10.864
0.825,0.300,-0.418,66.162,-47.119,13.062
0.837,0.296,-0.392,61.890,-48.035,13.672
0.844,0.321,-0.392,58.411,-48.706,12.939
0.845,0.333,-0.397,56.335,-48.645,13.306
0.848,0.350,-0.401,55.725,-48.523,13.367
0.850,0.364,-0.402,56.824,-48.645,13.367
0.847,0.366,-0.391,58.655,-48.279,13.428
0.837,0.369,-0.391,59.021,-48.096,13.184
0.830,0.374,-0.392,58.655,-48.401,11.841
0.840,0.371,-0.383,59.998,-49.927,8.301
0.852,0.366,-0.388,59.814,-52.246,5.676
0.860,0.371,-0.392,59.326,-53.650,5.310
0.868,0.379,-0.381,61.218,-53.833,6.653
0.864,0.398,-0.358,64.453,-53.772,8.911
0.852,0.416,-0.337,67.871,-53.528,10.376
0.834,0.429,-0.319,70.374,-53.894,10.132
0.815,0.435,-0.301,71.655,-55.664,7.324
0.804,0.438,-0.285,72.144,-57.983,2.197
0.814,0.432,-0.269,72.754,-60.181,-2.808
0.825,0.414,-0.256,72.571,-62.134,-6.165
0.829,0.410,-0.249,70.801,-64.453,-7.812
0.846,0.408,-0.228,71.533,-65.552,-8.911
0.862,0.389,-0.187,74.280,-65.918,-9.155
0.866,0.380,-0.174,74.646,-65.735,-6.836
0.870,0.386,-0.177,73.975,-64.697,-3.479
0.857,0.400,-0.178,74.951,-63.843,0.000
0.837,0.398,-0.156,77.820,-62.988,1.892
0.832,0.401,-0.129,80.872,-63.110,0.793
0.836,0.412,-0.129,80.566,-63.660,-1.221
0.836,0.418,-0.119,79.407,-65.063,-3.296
0.847,0.414,-0.102,79.834,-68.115,-6.531
0.863,0.413,-0.097,79.529,-70.129,-9.644
0.872,0.414,-0.086,79.285,-71.045,-9.460
0.862,0.410,-0.052,80.566,-72.021,-7.629
0.862,0.409,-0.019,82.458,-72.693,-6.775
0.873,0.425,-0.002,83.862,-72.388,-5.798
0.874,0.431,0.002,83.252,-72.449,-4.089
0.871,0.443,-0.020,81.726,-73.669,-2.808
0.865,0.455,-0.050,81.421,-74.402,-2.136
0.864,0.469,-0.080,83.130,-75.623,-1.770
0.872,0.487,-0.106,85.876,-77.087,-1.343
0.862,0.504,-0.128,88.562,-78.674,-0.854
0.866,0.518,-0.138,93.689,-81.543,-2.014
0.917,0.543,-0.171,99.915,-84.534,-3.967
0.947,0.606,-0.255,103.821,-86.121,-2.319
0.943,0.654,-0.320,108.459,-86.975,4.395
0.913,0.672,-0.353,117.737,-90.698,9.338
0.909,0.707,-0.382,129.639,-94.910,11.841
0.886,0.752,-0.424,139.954,-97.534,15.381
0.884,0.822,-0.490,147.034,-99.426,19.409
0.860,0.899,-0.552,152.832,-102.844,21.851
0.810,0.949,-0.605,159.729,-109.985,18.188
0.725,0.949,-0.598,168.152,-121.277,7.141
0.641,0.858,-0.502,183.472,-136.536,-11.230
0.589,0.749,-0.389,196.655,-153.687,-33.813
0.531,0.622,-0.266,201.538,-168.701,-55.359
0.463,0.435,-0.117,201.660,-182.861,-74.890
0.432,0.273,0.070,197.998,-198.242,-92.651
0.327,0.040,0.232,186.096,-215.271,-104.553
0.249,-0.209,0.396,176.147,-228.027,-112.793
0.182,-0.387,0.534,169.983,-230.713,-112.122
0.039,-0.693,0.688,170.105,-224.609,-101.929
-0.176,-1.061,0.904,180.115,-217.102,-87.952
-0.507,-1.545,1.244,196.167,-206.543,-71.411

-1.596,-3.071,2.463,235.291,-168.701,-54.016
-1.977,-3.980,3.321,240.906,-137.695,-59.937
-1.856,-4.000,4.000,229.736,-88.806,-73.914
-1.271,-3.965,4.000,140.686,-33.997,-67.871
-0.828,-3.146,3.517,-63.171,8.606,-36.987
-0.445,-2.289,2.175,-254.822,52.002,2.991
-0.100,-1.164,0.718,-340.942,79.590,41.138
0.172,-0.292,-0.112,-318.726,107.788,73.730
0.493,0.296,-0.284,-224.365,125.366,88.501
0.742,0.856,-0.235,-122.498,116.272,88.623
0.853,1.211,-0.184,-76.660,97.717,81.482
0.847,1.414,-0.197,-61.279,72.937,64.087
0.805,1.476,-0.197,-46.387,48.889,39.368
0.738,1.384,-0.071,-22.400,25.391,12.390
0.674,1.204,0.147,7.385,6.287,-12.024
0.612,0.973,0.403,34.302,-6.897,-30.151
0.534,0.696,0.654,53.162,-14.954,-40.710
0.465,0.449,0.837,61.584,-16.479,-44.006
0.395,0.162,0.984,66.711,-15.381,-44.922
0.326,-0.058,1.078,60.486,-12.146,-42.419
0.281,-0.300,1.151,56.641,-5.005,-35.950
0.264,-0.462,1.218,43.762,2.869,-29.053
0.262,-0.577,1.255,32.715,12.939,-22.522
0.269,-0.656,1.263,18.311,23.743,-16.724
0.298,-0.688,1.238,2.197,34.058,-11.414
0.335,-0.683,1.196,-13.062,43.457,-6.836
0.370,-0.647,1.134,-26.123,52.185,-3.052
0.406,-0.607,1.072,-35.461,60.852,0.732
0.446,-0.548,1.012,-40.955,69.092,4.150
0.485,-0.495,0.957,-44.067,77.209,6.653
0.513,-0.435,0.910,-45.593,83.435,8.606
0.537,-0.378,0.873,-46.204,88.013,9.521
0.563,-0.330,0.859,-45.715,91.858,9.705
0.587,-0.300,0.866,-47.241,94.116,10.559
0.595,-0.261,0.857,-53.711,94.604,12.268
0.594,-0.230,0.827,-63.416,94.971,13.550
0.599,-0.180,0.764,-73.669,94.543,13.916
0.597,-0.133,0.691,-80.750,93.933,14.221
0.598,-0.087,0.640,-81.970,94.238,13.245
0.602,-0.055,0.613,-79.041,94.238,10.925
0.602,-0.036,0.596,-75.378,94.055,7.996
0.598,-0.030,0.591,-72.754,93.323,5.554
0.600,-0.029,0.596,-71.838,93.201,3.540
0.616,-0.043,0.613,-70.923,94.360,1.465
0.647,-0.052,0.632,-73.914,94.910,0.366
0.684,-0.037,0.633,-81.665,93.628,4.211
0.689,-0.004,0.555,-93.811,93.994,12.207
0.685,0.041,0.472,-100.281,97.290,22.034
0.677,0.086,0.410,-100.220,100.037,30.640
0.670,0.129,0.374,-97.534,102.112,36.194
0.655,0.166,0.333,-95.581,103.577,38.757
0.627,0.188,0.320,-93.628,102.844,36.987
0.628,0.195,0.333,-92.896,100.037,29.907
0.644,0.193,0.346,-94.788,97.046,19.714
0.671,0.174,0.357,-100.098,94.910,10.498
0.703,0.148,0.356,-107.544,94.360,5.005
0.730,0.136,0.313,-112.976,96.191,4.944
0.750,0.166,0.249,-114.075,99.915,11.230
0.755,0.205,0.204,-111.145,105.042,20.142
0.743,0.230,0.159,-107.849,109.131,27.222
0.746,0.280,0.138,-105.774,110.474,31.128
0.739,0.278,0.145,-105.469,109.802,29.846
0.735,0.286,0.155,-108.093,107.178,24.353
0.750,0.277,0.160,-114.746,102.966,15.930
0.782,0.236,0.143,-123.291,98.511,6.470
0.845,0.270,0.097,-131.714,96.436,3.296
0.863,0.245,-0.019,-135.681,98.694,8.362
0.886,0.347,-0.116,-126.404,104.980,24.109
0.841,0.358,-0.168,-114.807,112.549,37.781
0.804,0.403,-0.191,-108.398,115.356,45.532
0.777,0.416,-0.201,-107.666,111.511,42.419
0.774,0.413,-0.209,-111.511,103.149,30.579
0.789,0.380,-0.217,-118.164,92.590,16.052
0.834,0.361,-0.263,-123.535,84.839,4.089
0.866,0.367,-0.323,-121.399,83.374,0.916
0.882,0.398,-0.375,-111.938,87.219,8.728
0.876,0.437,-0.431,-102.234,93.323,19.897
0.826,0.448,-0.443,-96.497,96.375,26.917
0.812,0.464,-0.465,-93.018,94.360,28.625
0.806,0.474,-0.473,-93.201,87.341,23.376
0.817,0.449,-0.464,-95.886,79.163,14.038
0.841,0.426,-0.470,-98.267,71.289,6.165
0.847,0.417,-0.474,-97.229,67.932,3.662
0.865,0.419,-0.463,-89.233,68.054,6.592
0.878,0.410,-0.473,-85.327,69.885,10.681
0.843,0.410,-0.493,-83.679,70.984,15.381
0.831,0.413,-0.536,-81.238,71.228,18.066
0.813,0.426,-0.570,-78.491,68.481,17.700
0.800,0.443,-0.606,-77.942,63.049,14.954
0.807,0.475,-0.633,-74.219,58.411,10.498
0.800,0.485,-0.643,-67.993,55.725,7.324
0.791,0.490,-0.644,-62.439,54.260,6.287
0.788,0.487,-0.644,-58.716,52.002,4.333
0.795,0.479,-0.637,-56.824,47.363,-0.244
0.809,0.459,-0.621,-55.908,41.687,-5.371
0.827,0.431,-0.610,-54.260,37.292,-9.705
0.841,0.404,-0.594,-51.331,35.339,-11.780
0.849,0.391,-0.586,-46.875,35.095,-11.292
0.853,0.381,-0.591,-43.274,35.156,-8.850
0.856,0.391,-0.610,-40.894,34.973,-6.470
0.864,0.407,-0.634,-38.330,34.119,-4.822
0.867,0.414,-0.645,-35.706,31.982,-4.395
0.865,0.404,-0.645,-33.081,28.931,-5.737
0.869,0.397,-0.650,-30.273,25.635,-7.507
0.874,0.400,-0.666,-28.076,22.827,-8.423
0.889,0.400,-0.688,-25.940,20.264,-9.277
0.906,0.389,-0.707,-22.888,17.212,-10.193
0.928,0.391,-0.741,-18.860,13.489,-9.827
0.938,0.384,-0.768,-13.489,10.376,-7.935
0.948,0.386,-0.794,-7.507,8.301,-5.005
0.954,0.390,-0.817,-1.038,5.371,-2.258
0.940,0.403,-0.850,4.028,1.282,0.366
0.925,0.410,-0.889,9.827,-3.418,2.441
0.916,0.407,-0.905,18.005,-8.362,3.235
0.908,0.401,-0.893,26.550,-14.099,3.540
0.898,0.394,-0.878,34.546,-18.982,4.700
0.884,0.395,-0.859,41.748,-23.071,6.470
0.880,0.391,-0.826,49.011,-26.367,8.972
0.871,0.395,-0.797,54.871,-29.297,11.414

-1.583,-2.535,2.071,220.093,-236.389,-50.964
-2.617,-3.917,3.033,239.746,-202.881,-43.396
-2.960,-4.000,4.000,263.916,-152.405,-65.979
-2.301,-4.000,4.000,240.417,-83.130,-94.421
-1.402,-4.000,4.000,31.006,-31.799,-91.492
-0.868,-3.171,3.635,-277.405,2.258,-55.115
-0.450,-1.795,1.529,-483.826,50.110,-4.272
-0.017,-0.470,-0.461,-509.705,105.408,36.682
0.426,0.608,-1.193,-369.141,111.511,68.054
0.822,1.258,-1.213,-206.787,121.155,84.900
1.026,1.753,-0.911,-71.777,104.065,76.965
1.071,1.986,-0.560,-1.587,76.660,62.500
0.974,1.967,-0.356,18.188,52.673,39.917
0.807,1.758,-0.209,23.376,23.621,9.583
0.648,1.424,0.023,33.508,-6.104,-22.339
0.552,1.034,0.352,51.392,-28.076,-50.598
0.463,0.605,0.689,67.566,-40.344,-67.566
0.392,0.240,0.957,76.843,-42.419,-69.336
0.331,-0.066,1.132,76.172,-35.034,-59.937
0.283,-0.288,1.200,70.374,-25.452,-44.739
0.242,-0.461,1.263,62.073,-15.930,-30.640
0.255,-0.555,1.267,49.866,-7.507,-20.020
0.277,-0.584,1.230,35.156,-0.671,-13.184
0.306,-0.608,1.183,16.113,5.371,-10.742
0.342,-0.598,1.120,-0.854,9.888,-9.766
0.379,-0.568,1.065,-14.771,14.771,-8.972
0.420,-0.532,1.032,-26.733,19.958,-8.057
0.438,-0.502,1.021,-36.072,25.513,-5.798
0.445,-0.467,1.027,-41.382,32.043,-2.747
0.448,-0.427,1.041,-44.312,39.856,0.854
0.433,-0.388,1.048,-46.936,47.180,4.944
0.412,-0.352,1.045,-49.988,53.223,9.033
0.399,-0.309,1.050,-52.490,58.533,11.353
0.385,-0.275,1.053,-55.969,62.012,11.719
0.368,-0.241,1.036,-62.500,64.331,10.986
0.343,-0.212,1.004,-70.557,65.857,8.423
0.333,-0.188,0.982,-77.209,67.810,3.784
0.338,-0.171,0.960,-82.886,69.519,-1.038
0.339,-0.162,0.940,-88.257,71.655,-4.211
0.345,-0.143,0.914,-93.018,74.768,-7.141
0.359,-0.119,0.880,-96.375,77.759,-9.583
0.368,-0.101,0.839,-98.938,79.895,-11.658
0.380,-0.082,0.788,-100.159,81.909,-11.963
0.400,-0.045,0.746,-97.412,84.473,-11.292
0.417,-0.004,0.725,-92.712,88.806,-10.498
0.430,0.030,0.717,-89.783,93.201,-8.423
0.447,0.057,0.731,-89.172,96.313,-6.470
0.466,0.088,0.748,-91.919,98.572,-5.310
0.495,0.111,0.756,-98.816,99.976,-4.944
0.518,0.130,0.723,-108.826,100.159,-4.395
0.540,0.148,0.676,-117.676,101.074,-2.930
0.576,0.158,0.624,-123.413,104.492,-0.916
0.603,0.180,0.558,-127.258,108.765,2.930
0.608,0.206,0.501,-129.028,113.220,8.728
0.605,0.229,0.451,-129.089,119.080,13.489
0.612,0.251,0.400,-128.906,122.986,15.015
0.606,0.272,0.350,-127.930,122.498,12.878
0.607,0.293,0.328,-125.122,120.911,8.118
0.621,0.302,0.322,-123.779,120.361,0.671
0.655,0.307,0.305,-127.014,118.408,-6.958
0.695,0.311,0.246,-131.775,117.249,-12.146
0.748,0.309,0.217,-133.179,119.690,-12.207
0.754,0.320,0.175,-132.202,126.038,-6.775
0.771,0.305,0.136,-127.075,130.554,1.526
0.756,0.328,0.115,-123.779,137.146,11.353
0.731,0.331,0.080,-124.756,140.808,16.357
0.699,0.316,0.038,-131.836,139.160,15.381
0.706,0.354,-0.007,-135.803,133.667,8.789
0.755,0.330,0.034,-143.982,125.183,-4.700
0.739,0.304,-0.077,-153.564,121.765,-15.747
0.786,0.302,-0.105,-151.184,120.850,-17.212
0.814,0.320,-0.128,-144.592,122.131,-15.808
0.807,0.304,-0.174,-144.226,125.854,-11.353
0.776,0.295,-0.198,-143.982,129.761,-5.066
0.763,0.293,-0.206,-141.724,131.104,-2.258
0.761,0.279,-0.245,-141.968,127.808,-4.028
0.765,0.263,-0.299,-145.325,122.437,-7.202
0.765,0.279,-0.344,-143.677,116.394,-10.254
0.792,0.280,-0.376,-141.052,109.192,-14.893
0.812,0.270,-0.411,-140.503,103.394,-20.447
0.809,0.255,-0.427,-138.428,101.318,-21.545
0.810,0.235,-0.423,-133.240,100.281,-20.142
0.827,0.254,-0.428,-126.038,99.487,-20.142
0.844,0.264,-0.464,-123.291,101.135,-17.883
0.814,0.242,-0.504,-120.361,105.042,-9.888
0.849,0.276,-0.586,-119.019,110.107,-1.526
0.751,0.172,-0.542,-119.812,108.765,-0.183
0.852,0.278,-0.632,-122.559,106.567,3.540
0.809,0.214,-0.647,-124.756,95.825,-5.859
0.823,0.174,-0.612,-124.634,79.956,-15.808
0.821,0.154,-0.575,-123.718,69.641,-18.433
0.839,0.138,-0.568,-123.474,72.754,-13.611
0.820,0.118,-0.627,-122.742,79.895,-8.911
0.804,0.088,-0.654,-121.033,88.867,-4.517
0.790,0.099,-0.704,-114.258,96.375,0.610
0.779,0.113,-0.734,-108.704,100.342,8.911
0.747,0.118,-0.760,-104.858,99.060,11.108
0.718,0.118,-0.781,-101.746,94.971,9.338
0.710,0.105,-0.787,-101.624,89.355,4.944
0.684,0.085,-0.764,-101.807,82.031,-0.122
0.668,0.065,-0.732,-100.952,77.148,-3.540
0.632,0.036,-0.695,-98.389,75.073,-6.531
0.591,0.014,-0.633,-94.543,74.707,-8.606
0.540,-0.037,-0.576,-93.750,76.477,-8.972
0.504,-0.084,-0.547,-97.290,79.163,-8.667
0.520,-0.117,-0.546,-102.051,80.933,-9.094
0.513,-0.178,-0.622,-111.572,81.299,-9.705
0.561,-0.222,-0.707,-124.634,80.200,-5.798
0.646,-0.261,-0.968,-130.737,78.735,-7.324
0.790,-0.210,-1.216,-125.488,74.097,-8.179
0.903,-0.126,-1.489,-124.573,70.435,-1.343
0.899,0.002,-1.716,-116.943,66.589,11.658
0.877,0.098,-1.846,-92.896,64.819,28.259
0.778,0.227,-1.869,-60.425,62.195,41.626
0.677,0.307,-1.736,-21.057,54.993,46.570
0.622,0.290,-1.463,11.719,43.335,38.147
0.604,0.184,-1.190,25.879,30.334,20.264
0.660,0.111,-0.973,29.663,16.052,3.967
0.709,0.058,-0.823,30.640,3.113,-4.150

-1.800,-2.329,2.175,330.383,-248.108,-9.949
-2.724,-3.688,3.502,345.032,-212.891,-14.343
-3.143,-4.000,4.000,348.083,-155.945,-45.715
-2.130,-4.000,4.000,291.748,-66.162,-66.772
-0.981,-3.486,4.000,24.597,8.423,-79.102
-0.368,-2.417,4.000,-363.525,62.134,-70.679
-0.347,-1.822,2.234,-453.552,22.034,-31.860
-0.109,-1.096,-0.157,-360.413,44.373,7.385
0.165,-0.103,-1.261,-243.652,91.797,32.532
0.622,0.797,-1.474,-142.700,129.944,62.378
0.897,1.346,-1.327,-62.988,127.625,77.393
1.008,1.748,-1.027,-8.118,97.839,67.261
0.997,1.885,-0.808,9.766,69.824,45.410
0.858,1.790,-0.665,7.324,37.659,19.775
0.707,1.551,-0.470,8.667,1.587,-4.761
0.578,1.261,-0.135,22.278,-24.597,-30.151
0.511,0.932,0.274,38.391,-39.307,-49.011
0.430,0.597,0.646,47.302,-44.373,-57.007
0.360,0.270,0.868,48.279,-38.818,-54.688
0.262,0.024,1.104,41.809,-25.391,-44.800
0.247,-0.147,1.286,28.809,-8.789,-33.325
0.235,-0.274,1.317,17.700,-3.052,-22.766
0.250,-0.360,1.357,2.808,1.343,-15.320
0.272,-0.389,1.354,-15.259,10.803,-11.841
0.297,-0.414,1.342,-32.959,19.592,-11.108
0.339,-0.415,1.289,-46.448,25.085,-11.047
0.375,-0.403,1.240,-57.129,30.945,-11.292
0.413,-0.372,1.200,-64.331,39.978,-10.986
0.439,-0.331,1.183,-66.162,47.852,-9.277
0.453,-0.275,1.164,-63.599,53.650,-6.531
0.467,-0.207,1.137,-61.340,60.486,-2.991
0.471,-0.151,1.105,-62.622,66.467,-0.244
0.477,-0.100,1.058,-65.613,70.435,2.319
0.478,-0.049,1.022,-68.176,73.547,4.272
0.484,-0.005,0.986,-71.899,75.806,5.737
0.458,0.014,0.973,-74.158,76.050,5.615
0.446,0.051,0.943,-76.538,76.660,6.042
0.433,0.082,0.911,-79.590,77.026,4.517
0.417,0.107,0.869,-83.496,77.637,-0.305
0.406,0.114,0.836,-87.891,78.186,-5.676
0.411,0.124,0.795,-92.590,77.820,-10.803
0.420,0.133,0.759,-96.619,76.904,-13.794
0.434,0.154,0.736,-101.929,80.139,-14.587
0.451,0.188,0.727,-103.943,84.961,-14.282
0.449,0.215,0.702,-98.877,85.876,-13.000
0.463,0.224,0.705,-96.985,89.966,-10.925
0.468,0.242,0.704,-98.145,93.994,-7.996
0.457,0.271,0.681,-100.098,96.985,-5.310
0.481,0.291,0.682,-104.980,99.915,-3.845
0.485,0.303,0.658,-114.502,101.318,-2.380
0.493,0.307,0.597,-125.549,103.333,-0.610
0.503,0.309,0.532,-134.338,106.750,0.732
0.517,0.326,0.456,-138.184,111.084,1.770
0.537,0.342,0.383,-138.855,117.615,3.601
0.544,0.350,0.336,-139.099,124.695,5.920
0.547,0.366,0.315,-138.489,130.493,6.348
0.536,0.380,0.294,-139.771,133.240,3.967
0.537,0.368,0.261,-145.203,132.202,1.587
0.552,0.356,0.228,-149.719,127.441,-2.502
0.590,0.364,0.183,-147.827,119.812,-9.521
0.632,0.356,0.144,-148.560,115.662,-15.747
0.657,0.348,0.082,-148.071,117.615,-16.785
0.677,0.339,0.050,-145.752,125.061,-13.977
0.689,0.339,0.013,-144.470,133.118,-9.094
0.695,0.341,-0.038,-147.034,139.099,-4.150
0.691,0.341,-0.102,-151.001,142.334,-1.587
0.703,0.326,-0.151,-152.344,141.174,-2.441
0.702,0.327,-0.222,-149.109,137.939,-3.967
0.714,0.323,-0.265,-140.259,136.475,-5.188
0.734,0.324,-0.304,-130.188,136.841,-7.019
0.747,0.333,-0.347,-120.850,138.123,-7.446
0.740,0.343,-0.389,-114.441,140.137,-6.165
0.742,0.351,-0.394,-110.291,139.709,-3.357
0.716,0.354,-0.427,-112.305,136.719,-0.916
0.721,0.360,-0.454,-114.990,130.798,0.732
0.728,0.367,-0.470,-119.507,122.925,0.122
0.730,0.356,-0.495,-127.991,113.831,-0.732
0.719,0.311,-0.554,-135.803,106.445,0.061
0.740,0.318,-0.592,-136.780,100.708,2.686
0.698,0.336,-0.643,-121.887,96.008,6.042
0.741,0.351,-0.743,-114.258,102.966,12.451
0.690,0.362,-0.777,-94.543,98.083,6.592
0.711,0.296,-0.733,-69.885,85.571,14.343
0.698,0.338,-0.741,-75.806,76.294,6.714
0.714,0.348,-0.741,-102.295,84.595,5.676
0.734,0.347,-0.773,-113.647,90.149,4.944
0.737,0.346,-0.800,-114.197,88.867,5.005
0.736,0.330,-0.824,-115.662,87.524,6.104
0.715,0.327,-0.846,-112.488,83.740,3.967
0.713,0.325,-0.855,-106.506,80.322,3.174
0.701,0.327,-0.868,-98.083,73.853,2.563
0.692,0.316,-0.879,-90.942,67.627,1.587
0.688,0.315,-0.888,-86.243,63.171,0.549
0.683,0.297,-0.881,-83.618,61.401,0.732
0.674,0.293,-0.861,-80.750,59.204,-0.305
0.662,0.288,-0.862,-78.674,56.152,-2.014
0.661,0.271,-0.852,-77.026,52.124,-3.418
0.672,0.251,-0.845,-74.524,47.058,-5.371
0.661,0.234,-0.831,-70.251,42.603,-6.775
0.660,0.228,-0.828,-67.932,42.419,-4.822
0.650,0.224,-0.845,-65.674,44.373,-2.441
0.642,0.237,-0.874,-61.462,47.241,0.061
0.635,0.229,-0.888,-58.411,50.476,1.221
0.626,0.220,-0.887,-58.472,51.208,1.160
0.615,0.207,-0.880,-56.641,47.180,0.732
0.612,0.196,-0.875,-55.786,41.260,0.000
0.615,0.193,-0.876,-56.458,35.339,-2.869
0.617,0.193,-0.882,-54.382,32.227,-3.845
0.615,0.189,-0.898,-49.561,32.410,-3.235
0.608,0.194,-0.912,-44.006,33.691,-1.587
0.601,0.193,-0.924,-38.940,33.508,-0.305
0.600,0.188,-0.942,-35.706,31.311,-1.343
0.604,0.180,-0.963,-33.264,28.015,-2.563
0.606,0.179,-0.973,-29.114,24.231,-2.869
0.611,0.174,-0.977,-23.926,20.630,-3.479
0.617,0.174,-0.987,-19.470,17.761,-3.906
0.613,0.178,-0.996,-14.465,15.747,-3.662
0.609,0.177,-0.991,-9.338,13.977,-3.357
0.611,0.179,-0.988,-6.348,11.902,-3.296

-1.942,-1.924,2.213,332.458,-302.795,-37.292
-2.980,-3.283,3.331,345.276,-262.085,-27.893
-3.324,-4.000,4.000,345.093,-191.589,-37.476
-2.793,-4.000,4.000,299.011,-78.308,-59.570
-1.496,-2.964,4.000,136.841,19.226,-53.711
-0.756,-2.499,4.000,-150.085,63.477,-29.907
-0.628,-1.837,2.637,-313.843,53.101,-5.737
-0.315,-1.130,-0.190,-303.650,70.313,1.892
0.150,-0.167,-1.236,-225.159,78.918,3.967
0.808,0.700,-1.362,-131.348,100.220,19.653
1.213,1.298,-1.137,-49.927,104.431,37.903
1.302,1.680,-0.940,-8.362,93.201,56.641
1.163,1.792,-0.885,3.296,80.261,64.514
0.932,1.710,-0.782,9.888,57.495,54.443
0.725,1.505,-0.494,21.484,21.606,30.396
0.572,1.219,-0.092,32.288,-10.315,-1.282
0.473,0.898,0.329,36.133,-32.104,-29.236
0.399,0.568,0.681,32.532,-42.480,-46.875
0.338,0.276,0.943,23.865,-39.551,-52.063
0.288,0.025,1.144,16.296,-29.480,-46.387
0.244,-0.137,1.285,5.676,-15.381,-35.645
0.246,-0.246,1.356,-7.874,0.000,-22.217
0.240,-0.308,1.381,-10.376,5.920,-12.634
0.254,-0.336,1.385,-24.841,17.090,-7.202
0.261,-0.360,1.387,-42.175,26.611,-5.676
0.265,-0.364,1.343,-56.335,33.386,-8.545
0.289,-0.367,1.307,-68.359,40.405,-11.719
0.327,-0.339,1.256,-77.637,48.218,-13.489
0.371,-0.291,1.193,-83.008,56.030,-12.817
0.394,-0.244,1.162,-84.778,65.491,-10.376
0.398,-0.177,1.101,-83.984,74.219,-6.836
0.403,-0.107,1.044,-82.703,82.825,-3.296
0.384,-0.055,1.005,-82.336,89.539,-1.953
0.374,-0.004,0.971,-83.374,94.116,-2.380
0.373,0.039,0.954,-85.815,96.497,-3.967
0.386,0.062,0.908,-89.661,95.825,-7.568
0.384,0.082,0.880,-92.590,93.994,-11.963
0.407,0.098,0.860,-94.788,93.750,-15.381
0.420,0.119,0.863,-95.581,93.689,-18.677
0.425,0.134,0.831,-96.863,95.459,-20.813
0.426,0.148,0.790,-100.037,98.389,-20.569
0.433,0.166,0.749,-105.164,101.624,-18.555
0.451,0.173,0.741,-111.267,104.797,-15.930
0.467,0.216,0.725,-117.798,108.521,-11.902
0.462,0.226,0.685,-123.962,111.389,-8.972
0.457,0.249,0.625,-128.662,114.502,-7.019
0.465,0.277,0.557,-128.052,115.112,-6.042
0.479,0.300,0.502,-127.991,116.760,-6.531
0.481,0.318,0.462,-126.953,119.568,-7.751
0.494,0.324,0.436,-124.634,122.192,-9.827
0.514,0.348,0.412,-123.230,122.620,-11.841
0.533,0.352,0.397,-124.573,123.291,-13.550
0.560,0.365,0.380,-129.639,125.854,-13.550
0.582,0.347,0.360,-136.902,130.066,-12.451
0.599,0.336,0.324,-145.020,134.033,-9.766
0.616,0.337,0.266,-150.513,139.587,-5.676
0.621,0.368,0.201,-153.015,146.851,-0.793
0.596,0.359,0.161,-155.334,151.733,1.343
0.574,0.380,0.099,-157.349,155.212,0.610
0.546,0.388,0.054,-161.621,155.212,-3.174
0.524,0.373,0.009,-168.762,148.865,-9.521
0.543,0.345,-0.035,-178.101,138.062,-18.372
0.590,0.328,-0.114,-186.035,128.357,-28.076
0.637,0.308,-0.188,-189.087,127.380,-31.982
0.695,0.294,-0.268,-183.777,139.099,-27.466
0.699,0.305,-0.350,-174.866,159.851,-15.747
0.676,0.313,-0.381,-170.776,178.894,-1.953
0.614,0.284,-0.337,-166.138,190.308,5.615
0.545,0.263,-0.381,-164.062,184.937,3.906
0.516,0.253,-0.403,-166.565,163.574,-5.920
0.560,0.213,-0.456,-174.744,136.658,-21.790
0.638,0.200,-0.550,-179.565,114.990,-34.912
0.691,0.185,-0.630,-174.866,111.694,-38.086
0.682,0.152,-0.668,-164.795,128.723,-31.311
0.641,0.139,-0.679,-154.175,150.024,-18.372
0.581,0.161,-0.697,-157.959,161.194,-9.460
0.536,0.225,-0.731,-148.987,160.950,0.000
0.552,0.166,-0.800,-150.696,156.677,5.737
0.507,0.087,-0.725,-146.912,125.732,-17.578
0.562,0.091,-0.754,-134.521,92.346,-19.470
0.558,0.047,-0.754,-155.640,88.501,-21.240
0.544,-0.001,-0.750,-167.603,103.821,-16.602
0.543,-0.008,-0.811,-169.800,121.399,-7.935
0.487,-0.057,-0.852,-168.884,128.784,-2.502
0.470,-0.017,-0.882,-161.194,128.662,3.174
0.454,-0.046,-0.910,-158.142,127.869,-0.732
0.418,-0.093,-0.955,-152.771,121.948,-6.470
0.390,-0.125,-1.057,-146.423,117.981,-8.972
0.374,-0.157,-1.138,-142.700,116.638,-5.798
0.369,-0.181,-1.215,-138.916,110.229,-4.456
0.373,-0.210,-1.321,-134.766,98.572,-7.690
0.403,-0.224,-1.400,-129.333,85.632,-12.085
0.454,-0.225,-1.462,-119.202,73.425,-17.761
0.498,-0.228,-1.497,-107.117,61.829,-22.095
0.545,-0.226,-1.524,-94.421,50.659,-23.865
0.577,-0.199,-1.543,-82.642,42.236,-22.766
0.626,-0.189,-1.575,-72.327,40.222,-19.470
0.653,-0.159,-1.589,-59.753,39.612,-14.038
0.661,-0.134,-1.589,-46.814,39.368,-6.897
0.649,-0.120,-1.541,-33.875,37.842,-1.526
0.613,-0.093,-1.448,-17.151,32.776,1.892
0.585,-0.074,-1.332,-3.418,28.442,3.479
0.566,-0.055,-1.218,4.272,25.879,3.296
0.556,-0.039,-1.113,9.155,22.400,2.197
0.559,-0.048,-1.025,10.193,17.273,0.732
0.570,-0.055,-0.943,9.583,11.963,-0.671
0.594,-0.056,-0.888,9.033,7.446,-2.197
0.608,-0.062,-0.857,7.202,4.333,-2.686
0.606,-0.065,-0.839,6.226,3.113,-2.014
0.597,-0.066,-0.831,7.507,2.319,-0.793
0.591,-0.058,-0.830,10.315,2.441,0.427
0.587,-0.052,-0.848,11.658,4.028,0.977
0.577,-0.041,-0.875,12.695,5.127,1.953
0.561,-0.023,-0.892,13.367,5.005,3.113
0.542,-0.012,-0.888,14.648,2.747,3.418
0.528,0.003,-0.872,15.015,-0.061,2.014
0.514,0.007,-0.853,14.038,-2.563,0.854
0.521,0.001,-0.852,12.146,-4.150,-0.732
0.535,-0.000,-0.871,9.766,-4.761,-1.648

-0.912,-0.891,1.943,268.066,-219.727,34.058
-1.427,-1.302,2.631,259.827,-190.613,36.743
-2.019,-1.892,3.648,237.732,-145.081,36.926
-2.218,-2.377,4.000,199.768,-80.261,36.682
-2.046,-2.289,4.000,120.056,-12.634,13.733
-0.910,-1.520,4.000,7.874,23.682,-22.705
-0.669,-1.182,4.000,-112.000,13.184,-47.363
-0.485,-0.953,2.781,-204.956,-0.671,-54.016
-0.244,-0.713,1.144,-207.397,6.287,-53.101
-0.015,-0.309,0.080,-173.035,34.546,-55.237
0.302,0.126,-0.392,-123.962,67.688,-46.265
0.592,0.527,-0.568,-75.195,90.698,-23.010
0.753,0.812,-0.497,-42.542,98.083,-2.319
0.788,0.962,-0.349,-26.306,95.337,13.306
0.738,1.005,-0.191,-20.264,87.097,20.935
0.651,0.982,-0.027,-20.325,75.256,21.301
0.546,0.883,0.158,-24.902,62.500,15.686
0.463,0.783,0.339,-29.419,51.392,5.859
0.411,0.666,0.478,-36.316,44.495,-3.174
0.370,0.535,0.656,-45.715,41.016,-8.362
0.353,0.413,0.747,-52.856,39.978,-10.071
0.325,0.296,0.869,-59.265,45.410,-9.521
0.323,0.213,0.973,-64.941,54.016,-7.629
0.322,0.143,1.035,-61.462,57.312,-5.310
0.323,0.097,1.099,-62.866,65.308,-3.723
0.315,0.061,1.128,-68.909,74.707,-2.808
0.329,0.049,1.102,-76.904,82.642,-3.174
0.352,0.052,1.071,-86.914,88.806,-4.272
0.372,0.055,1.031,-97.168,93.506,-7.263
0.407,0.069,0.984,-106.201,99.487,-9.949
0.427,0.087,0.931,-111.328,104.553,-13.733
0.445,0.109,0.886,-111.633,107.971,-17.517
0.461,0.150,0.831,-108.887,110.413,-20.203
0.475,0.187,0.802,-107.178,113.220,-21.729
0.480,0.219,0.764,-107.910,116.394,-23.193
0.491,0.250,0.737,-111.267,118.774,-25.696
0.502,0.272,0.671,-115.051,119.507,-29.175
0.515,0.276,0.599,-116.821,119.446,-31.738
0.550,0.289,0.541,-116.699,119.385,-31.860
0.559,0.318,0.479,-113.892,120.056,-30.884
0.569,0.335,0.444,-110.046,124.084,-27.771
0.580,0.321,0.423,-107.605,128.845,-23.010
0.572,0.324,0.369,-108.887,130.615,-20.569
0.582,0.351,0.309,-108.826,130.920,-20.264
0.579,0.371,0.236,-110.962,132.874,-18.372
0.560,0.372,0.182,-112.549,136.353,-15.137
0.541,0.394,0.145,-113.220,139.099,-14.282
0.526,0.398,0.130,-116.028,139.954,-16.296
0.558,0.402,0.098,-123.535,139.160,-19.958
0.591,0.381,0.028,-130.188,138.489,-22.339
0.638,0.370,-0.054,-131.409,140.930,-19.958
0.644,0.377,-0.099,-126.282,148.254,-14.893
0.654,0.387,-0.117,-120.972,159.119,-9.766
0.644,0.393,-0.125,-121.399,168.457,-5.859
0.621,0.385,-0.121,-128.967,172.729,-5.249
0.594,0.371,-0.135,-142.883,170.105,-7.812
0.583,0.353,-0.162,-160.583,162.170,-13.245
0.619,0.316,-0.242,-179.687,151.306,-20.325
0.674,0.308,-0.388,-194.397,144.287,-24.048
0.693,0.264,-0.547,-198.425,146.667,-21.057
0.687,0.236,-0.638,-190.308,156.738,-13.489
0.652,0.219,-0.683,-177.917,169.373,-6.775
0.620,0.206,-0.677,-169.800,176.147,-4.822
0.582,0.191,-0.656,-172.363,171.631,-7.385
0.576,0.167,-0.611,-185.669,157.593,-13.672
0.595,0.112,-0.615,-205.933,140.869,-23.010
0.634,0.072,-0.680,-221.069,128.967,-32.715
0.631,0.039,-0.723,-218.994,128.723,-34.424
0.602,0.024,-0.836,-213.867,138.672,-30.396
0.612,-0.007,-0.821,-210.083,156.616,-24.780
0.563,-0.029,-0.887,-187.683,153.809,-18.921
0.504,-0.059,-0.964,-164.551,147.339,-7.385
0.518,-0.049,-0.977,-158.020,143.494,-2.014
0.518,-0.062,-0.959,-155.273,131.409,-5.981
0.523,-0.083,-0.918,-150.330,111.450,-13.733
0.518,-0.118,-0.869,-148.376,92.529,-19.348
0.507,-0.129,-0.835,-147.888,79.468,-19.104
0.499,-0.128,-0.817,-149.658,78.735,-16.418
0.459,-0.161,-0.797,-149.719,88.074,-13.855
0.412,-0.213,-0.802,-146.484,103.333,-8.179
0.359,-0.236,-0.859,-139.099,118.591,-1.038
0.288,-0.279,-0.916,-128.845,128.967,4.822
0.243,-0.305,-0.966,-119.080,132.812,6.104
0.213,-0.349,-1.065,-117.676,129.883,2.380
0.224,-0.377,-1.186,-121.643,122.192,-1.892
0.244,-0.410,-1.357,-126.587,113.586,-3.662
0.285,-0.410,-1.534,-131.897,102.905,-4.089
0.355,-0.409,-1.705,-132.080,89.966,-4.578
0.466,-0.413,-1.852,-128.479,77.393,-5.554
0.522,-0.437,-1.958,-116.882,64.026,-4.578
0.561,-0.425,-2.046,-91.980,52.246,1.831
0.539,-0.341,-2.096,-55.725,44.250,10.498
0.485,-0.249,-2.038,-18.494,41.260,18.616
0.413,-0.158,-1.893,13.000,36.743,20.813
0.373,-0.111,-1.649,38.574,25.146,14.404
0.371,-0.137,-1.397,52.979,8.423,2.747
0.414,-0.157,-1.170,59.143,-7.690,-6.836
0.449,-0.149,-0.971,61.523,-17.944,-11.230
0.497,-0.178,-0.843,60.425,-21.606,-11.963
0.541,-0.193,-0.775,55.969,-18.982,-9.766
0.570,-0.197,-0.771,49.255,-13.184,-5.066
0.569,-0.202,-0.808,42.725,-6.287,1.587
0.543,-0.192,-0.867,38.391,-0.061,9.094
0.504,-0.165,-0.917,38.330,5.432,14.648
0.464,-0.142,-0.940,40.466,8.118,16.846
0.426,-0.120,-0.961,42.175,7.263,17.700
0.401,-0.108,-0.980,41.687,5.432,17.212
0.389,-0.089,-1.010,40.955,1.160,15.015
0.394,-0.086,-1.016,40.833,-4.517,11.719
0.414,-0.080,-1.022,39.917,-10.315,7.568
0.433,-0.085,-1.025,39.063,-15.259,5.127
0.447,-0.079,-1.026,39.978,-18.616,4.333
0.456,-0.063,-1.027,42.725,-20.325,4.761
0.453,-0.054,-1.029,45.837,-20.325,6.042
0.440,-0.040,-1.028,49.072,-19.897,7.874
0.431,-0.023,-1.039,52.307,-19.165,8.972
0.416,-0.018,-1.044,55.237,-18.433,9.277
0.406,-0.010,-1.053,58.960,-19.348,9.033
0.406,0.012,-1.056,62.744,-21.851,8.057

-1.154,-1.194,1.937,300.781,-220.276,27.588
-1.712,-1.636,2.537,295.715,-188.843,29.663
-2.117,-2.211,3.517,264.160,-147.766,16.724
-2.156,-2.606,4.000,197.815,-99.121,-12.512
-1.569,-2.204,4.000,102.722,-39.124,-38.818
-0.886,-1.496,4.000,-6.165,-3.113,-62.683
-0.559,-1.339,3.955,-112.793,-5.188,-73.059
-0.391,-1.117,2.505,-177.490,9.583,-61.951
-0.252,-0.896,1.105,-185.425,50.964,-41.626
-0.094,-0.520,0.294,-165.894,86.914,-19.226
0.126,-0.158,-0.087,-134.766,116.089,8.057
0.328,0.186,-0.180,-101.868,130.737,33.752
0.446,0.450,-0.106,-76.660,128.235,47.241
0.489,0.622,0.005,-68.542,115.479,51.331
0.491,0.708,0.099,-71.960,98.389,47.302
0.477,0.723,0.165,-79.224,82.275,38.330
0.448,0.689,0.229,-85.510,67.871,28.687
0.417,0.645,0.306,-89.539,56.702,20.752
0.387,0.604,0.383,-90.698,49.500,15.991
0.361,0.530,0.466,-90.637,45.471,14.709
0.354,0.485,0.542,-86.670,43.030,12.207
0.355,0.443,0.614,-82.825,43.152,9.827
0.354,0.398,0.663,-77.576,44.922,10.010
0.365,0.360,0.685,-70.923,45.715,10.376
0.368,0.329,0.723,-68.726,50.049,9.827
0.379,0.325,0.753,-69.092,56.213,10.559
0.382,0.311,0.790,-69.824,63.232,11.719
0.391,0.320,0.771,-68.054,69.458,12.756
0.406,0.329,0.789,-67.444,73.853,11.047
0.421,0.339,0.793,-69.214,76.111,8.240
0.448,0.348,0.796,-73.364,77.148,5.310
0.470,0.345,0.788,-77.820,77.271,1.770
0.498,0.348,0.769,-81.848,78.674,-0.977
0.520,0.345,0.752,-84.595,80.994,-3.052
0.531,0.348,0.725,-87.830,84.717,-4.456
0.539,0.340,0.703,-89.905,88.440,-5.554
0.542,0.342,0.669,-88.684,89.600,-7.935
0.555,0.366,0.638,-88.013,89.966,-10.803
0.563,0.382,0.610,-89.233,90.271,-13.000
0.561,0.385,0.584,-91.003,90.759,-15.625
0.560,0.393,0.565,-93.628,91.675,-18.616
0.574,0.398,0.540,-96.619,92.285,-20.081
0.581,0.419,0.531,-100.586,92.407,-19.348
0.585,0.419,0.503,-103.821,92.041,-18.188
0.592,0.422,0.486,-105.103,94.238,-16.052
0.599,0.424,0.449,-101.990,94.055,-13.489
0.595,0.444,0.392,-99.854,95.459,-9.949
0.587,0.452,0.359,-98.633,98.572,-5.615
0.578,0.464,0.321,-99.243,100.342,-3.540
0.570,0.475,0.286,-101.013,100.830,-3.601
0.562,0.481,0.250,-106.873,100.403,-4.700
0.571,0.490,0.214,-113.708,99.548,-6.470
0.587,0.498,0.156,-118.591,99.243,-7.935
0.597,0.496,0.098,-121.765,100.891,-7.812
0.616,0.495,0.044,-122.681,105.957,-5.737
0.616,0.501,0.003,-122.375,112.366,-2.625
0.613,0.487,-0.008,-124.146,118.469,0.916
0.597,0.475,-0.007,-126.282,121.216,3.357
0.600,0.499,-0.029,-128.723,120.300,3.113
0.611,0.496,-0.077,-133.362,116.699,0.244
0.618,0.492,-0.140,-133.484,113.098,-2.502
0.632,0.501,-0.193,-130.554,111.023,-5.005
0.640,0.495,-0.233,-128.784,109.131,-7.080
0.650,0.486,-0.264,-127.686,106.140,-8.484
0.641,0.484,-0.280,-128.296,104.187,-9.033
0.655,0.467,-0.285,-130.554,103.333,-9.705
0.667,0.477,-0.300,-132.690,101.440,-10.620
0.689,0.475,-0.308,-134.216,99.365,-11.475
0.697,0.467,-0.347,-134.033,100.952,-11.108
0.710,0.451,-0.400,-130.859,105.225,-9.460
0.692,0.436,-0.460,-125.916,109.985,-6.348
0.694,0.415,-0.492,-121.765,113.647,-3.296
0.592,0.363,-0.516,-117.859,112.000,-2.930
0.687,0.469,-0.564,-112.793,105.957,-2.197
0.649,0.428,-0.603,-109.619,95.154,-11.169
0.661,0.407,-0.616,-102.417,82.825,-19.043
0.701,0.426,-0.616,-97.412,76.050,-16.235
0.715,0.412,-0.625,-103.027,78.552,-12.817
0.719,0.417,-0.645,-110.046,86.365,-8.240
0.712,0.402,-0.641,-112.610,94.482,-0.977
0.709,0.404,-0.552,-110.779,96.069,2.991
0.690,0.387,-0.554,-112.000,91.309,5.310
0.670,0.366,-0.513,-119.019,87.891,7.446
0.660,0.340,-0.475,-125.916,83.496,8.667
0.661,0.329,-0.446,-132.568,77.698,9.460
0.641,0.304,-0.424,-138.733,73.425,10.010
0.642,0.259,-0.415,-144.714,75.684,13.489
0.585,0.236,-0.501,-148.499,86.304,19.043
0.503,0.201,-0.573,-148.682,104.858,26.917
0.450,0.184,-0.615,-146.667,119.995,34.607
0.398,0.167,-0.640,-150.391,122.131,36.865
0.370,0.124,-0.677,-159.058,112.305,36.072
0.326,0.107,-0.753,-169.006,98.511,35.034
0.307,0.057,-0.800,-176.270,90.271,30.945
0.330,0.004,-0.855,-178.772,87.524,26.978
0.239,-0.055,-0.940,-177.551,89.233,27.344
0.223,-0.102,-1.049,-178.406,92.041,28.259
0.216,-0.111,-1.153,-179.626,87.646,21.912
0.251,-0.139,-1.246,-177.551,73.914,11.353
0.304,-0.162,-1.297,-168.396,52.979,0.488
0.361,-0.151,-1.320,-160.889,33.447,-9.033
0.413,-0.187,-1.291,-155.945,18.555,-15.869
0.443,-0.227,-1.230,-146.912,8.789,-19.958
0.458,-0.254,-1.167,-135.315,4.456,-21.301
0.472,-0.259,-1.125,-125.122,8.362,-19.043
0.473,-0.281,-1.118,-117.126,20.142,-14.832
0.489,-0.298,-1.177,-110.901,36.926,-8.728
0.464,-0.298,-1.308,-102.966,53.223,-1.648
0.458,-0.277,-1.467,-90.942,64.575,7.874
0.455,-0.289,-1.635,-77.759,66.406,10.132
0.480,-0.219,-1.765,-61.768,55.237,7.935
0.464,-0.166,-1.835,-44.495,40.039,6.775
0.419,-0.118,-1.790,-23.560,24.048,7.446
0.356,-0.071,-1.636,-1.953,10.437,5.859
0.334,-0.051,-1.438,15.808,-0.671,0.732
0.352,-0.057,-1.236,26.184,-8.484,-6.714
0.393,-0.067,-1.078,29.297,-15.320,-12.878
0.442,-0.073,-0.956,26.489,-19.104,-16.113
0.499,-0.083,-0.892,20.630,-20.020,-16.418

-1.091,-0.821,1.831,272.095,-207.886,6.042
-1.551,-1.156,2.375,253.479,-183.899,0.671
-1.967,-1.596,3.130,221.558,-153.748,-14.404
-2.098,-2.058,4.000,166.931,-118.408,-42.480
-1.863,-2.020,4.000,82.886,-76.233,-68.909
-0.769,-1.531,4.000,-23.376,-29.236,-92.773
-0.486,-1.089,4.000,-120.361,7.324,-106.201
-0.255,-0.941,3.194,-165.222,17.151,-83.801
-0.195,-0.756,1.973,-163.391,47.485,-42.664
-0.101,-0.578,0.853,-128.906,86.121,-7.568
-0.002,-0.318,0.301,-97.961,118.591,22.644
0.114,-0.013,0.054,-66.772,139.282,42.358
0.267,0.328,-0.079,-49.255,146.484,57.556
0.323,0.527,0.012,-53.528,122.253,59.326
0.385,0.656,0.107,-62.927,100.830,51.392
0.401,0.709,0.193,-75.256,81.116,40.527
0.394,0.693,0.270,-84.595,66.040,30.212
0.370,0.638,0.343,-89.478,55.359,23.560
0.343,0.592,0.422,-89.905,48.767,19.226
0.314,0.547,0.508,-88.745,46.143,17.456
0.289,0.488,0.617,-86.365,47.058,17.822
0.277,0.425,0.690,-82.031,48.340,18.433
0.270,0.370,0.768,-75.928,50.903,17.212
0.273,0.347,0.824,-70.435,55.115,15.564
0.273,0.322,0.853,-67.932,60.242,14.832
0.279,0.311,0.879,-69.214,66.589,14.832
0.283,0.312,0.877,-73.364,72.632,15.076
0.291,0.328,0.863,-78.918,78.430,15.198
0.304,0.339,0.842,-85.266,83.496,13.428
0.324,0.351,0.820,-90.881,86.426,9.766
0.351,0.368,0.794,-95.764,88.074,4.883
0.378,0.380,0.763,-100.159,88.989,-0.122
0.388,0.391,0.723,-103.149,89.844,-4.028
0.401,0.409,0.689,-104.126,89.905,-8.484
0.413,0.421,0.649,-105.530,88.562,-14.465
0.426,0.425,0.617,-107.178,85.815,-20.691
0.451,0.430,0.574,-107.727,82.642,-27.771
0.481,0.435,0.530,-107.239,80.872,-33.813
0.515,0.445,0.485,-104.736,80.811,-37.231
0.538,0.453,0.442,-100.098,84.167,-37.781
0.559,0.456,0.411,-93.628,89.966,-35.889
0.576,0.471,0.390,-86.182,95.581,-32.349
0.587,0.475,0.409,-80.078,99.670,-28.809
0.591,0.481,0.423,-76.843,100.891,-26.245
0.584,0.495,0.410,-78.125,98.328,-25.085
0.583,0.495,0.396,-84.045,94.116,-25.452
0.585,0.483,0.363,-92.224,89.050,-26.306
0.596,0.480,0.312,-98.877,84.961,-26.855
0.610,0.475,0.271,-101.563,84.045,-26.611
0.627,0.472,0.247,-102.295,87.097,-24.292
0.631,0.472,0.217,-99.854,91.980,-19.958
0.629,0.480,0.186,-96.191,98.572,-14.221
0.602,0.482,0.184,-92.712,105.286,-9.216
0.582,0.498,0.184,-91.064,109.009,-6.226
0.570,0.488,0.200,-94.238,109.009,-6.226
0.552,0.472,0.214,-98.999,104.065,-10.437
0.551,0.448,0.210,-104.309,97.046,-17.029
0.591,0.433,0.171,-110.291,91.675,-22.644
0.616,0.425,0.106,-112.793,92.651,-24.353
0.645,0.413,0.052,-111.267,101.990,-19.836
0.650,0.423,-0.010,-106.201,115.173,-12.085
0.630,0.434,-0.037,-100.647,127.380,-4.028
0.611,0.451,-0.026,-98.755,133.850,0.854
0.588,0.458,-0.006,-104.492,130.493,1.587
0.573,0.449,0.004,-117.310,120.117,-2.319
0.578,0.425,-0.008,-132.629,105.164,-10.010
0.607,0.387,-0.043,-146.362,90.515,-19.043
0.656,0.367,-0.114,-154.297,84.167,-24.048
0.687,0.344,-0.206,-154.114,91.248,-21.484
0.696,0.343,-0.291,-145.081,110.352,-11.536
0.669,0.360,-0.342,-132.202,134.277,1.892
0.634,0.343,-0.345,-126.038,149.780,13.489
0.558,0.325,-0.329,-126.892,147.339,14.282
0.559,0.337,-0.324,-138.550,135.864,14.038
0.569,0.310,-0.336,-154.846,118.896,8.057
0.588,0.281,-0.339,-169.373,101.624,-0.366
0.626,0.235,-0.346,-179.077,91.492,-4.883
0.659,0.205,-0.433,-181.702,94.788,-3.418
0.649,0.181,-0.522,-176.147,116.760,7.874
0.585,0.169,-0.604,-164.246,147.339,24.292
0.489,0.161,-0.671,-152.771,168.884,37.964
0.450,0.214,-0.743,-148.010,173.401,43.579
0.412,0.237,-0.752,-156.189,162.354,39.185
0.400,0.205,-0.740,-172.241,142.151,30.457
0.402,0.161,-0.683,-188.171,119.995,20.874
0.409,0.106,-0.649,-204.285,102.417,13.062
0.391,0.036,-0.574,-219.543,92.163,9.338
0.358,-0.063,-0.527,-229.004,90.027,10.864
0.319,-0.167,-0.614,-225.464,96.802,18.188
0.225,-0.310,-0.745,-232.727,113.831,29.968
0.159,-0.382,-0.939,-242.493,132.446,45.654
0.110,-0.438,-1.114,-253.418,144.714,58.289
0.099,-0.557,-1.291,-266.113,142.090,64.392
0.125,-0.632,-1.538,-273.499,122.620,61.584
0.181,-0.615,-1.833,-270.508,97.046,49.683
0.244,-0.518,-2.133,-254.761,75.867,37.292
0.349,-0.456,-2.366,-224.731,65.247,28.564
0.465,-0.387,-2.592,-190.491,62.988,24.414
0.518,-0.285,-2.755,-151.917,62.805,29.968
0.473,-0.172,-2.716,-105.225,58.533,42.969
0.348,-0.085,-2.475,-52.795,44.739,48.706
0.247,-0.021,-2.120,-3.540,23.804,37.231
0.208,0.001,-1.769,33.203,2.380,12.451
0.247,-0.048,-1.441,51.392,-13.000,-12.146
0.345,-0.052,-1.154,51.392,-21.179,-28.442
0.444,-0.088,-1.008,48.035,-24.597,-29.663
0.517,-0.139,-0.941,42.297,-26.184,-21.362
0.584,-0.120,-1.021,32.349,-21.973,-12.939
0.594,-0.126,-1.081,28.992,-14.343,-2.502
0.575,-0.126,-1.159,33.752,-4.395,8.667
0.539,-0.115,-1.204,44.373,7.690,18.005
0.490,-0.111,-1.240,60.181,16.541,22.827
0.433,-0.095,-1.260,75.806,23.315,23.804
0.387,-0.025,-1.278,90.515,24.414,25.085
0.349,0.028,-1.280,99.854,23.437,26.367
0.313,0.059,-1.276,105.835,17.944,22.888
0.290,0.072,-1.285,111.267,8.301,17.029
0.310,0.104,-1.291,116.028,-1.709,12.756
0.325,0.100,-1.272,119.263,-10.254,6.836

-0.950,-0.986,2.019,244.568,-189.758,-12.817
-1.350,-1.378,2.586,229.370,-171.753,-17.395
-1.734,-1.809,3.328,196.899,-145.447,-28.259
-1.843,-2.190,4.000,142.395,-112.976,-46.509
-1.454,-1.976,4.000,76.355,-67.932,-63.232
-0.853,-1.458,4.000,3.296,-19.165,-76.172
-0.479,-1.221,3.865,-80.261,13.123,-70.435
-0.390,-1.042,2.742,-136.597,40.283,-43.640
-0.306,-0.873,1.448,-146.301,76.111,-14.893
-0.225,-0.610,0.671,-135.864,111.206,6.653
-0.098,-0.313,0.335,-116.455,133.301,26.611
0.032,-0.029,0.258,-94.360,141.663,41.748
0.116,0.195,0.368,-78.796,132.690,45.837
0.179,0.357,0.491,-78.735,117.249,40.283
0.210,0.439,0.566,-89.172,102.112,30.762
0.220,0.451,0.583,-102.295,88.684,21.484
0.230,0.437,0.573,-112.061,78.735,15.381
0.232,0.422,0.576,-116.455,73.792,11.841
0.232,0.395,0.604,-117.615,73.120,10.803
0.222,0.370,0.622,-115.295,75.073,13.062
0.217,0.352,0.633,-108.948,78.125,15.686
0.215,0.342,0.645,-102.173,82.275,16.541
0.219,0.338,0.639,-98.328,84.961,15.869
0.231,0.332,0.654,-97.900,86.304,13.367
0.245,0.339,0.641,-99.487,87.341,9.644
0.266,0.344,0.639,-101.929,89.050,5.920
0.285,0.350,0.652,-104.309,91.003,2.197
0.297,0.367,0.638,-105.652,92.407,-2.014
0.327,0.375,0.628,-105.957,93.201,-6.409
0.357,0.389,0.603,-104.797,93.811,-11.719
0.403,0.396,0.590,-103.088,95.459,-16.174
0.441,0.407,0.587,-101.868,98.022,-18.005
0.464,0.405,0.572,-101.563,101.685,-17.639
0.490,0.392,0.565,-101.807,105.713,-16.785
0.516,0.380,0.566,-103.455,108.704,-16.296
0.536,0.374,0.564,-106.201,109.253,-15.015
0.548,0.377,0.539,-109.375,109.009,-13.489
0.550,0.373,0.512,-113.586,109.558,-12.329
0.552,0.365,0.483,-118.225,109.375,-12.024
0.567,0.357,0.428,-120.178,108.398,-12.024
0.580,0.375,0.364,-118.530,108.643,-11.780
0.580,0.380,0.332,-116.211,111.633,-9.888
0.570,0.393,0.311,-113.770,115.295,-6.714
0.548,0.414,0.310,-112.976,117.310,-4.333
0.523,0.422,0.320,-116.394,116.577,-3.967
0.513,0.424,0.317,-123.718,113.159,-5.615
0.515,0.425,0.284,-134.033,107.849,-9.216
0.517,0.405,0.246,-142.517,103.088,-12.146
0.538,0.401,0.198,-146.240,104.248,-12.207
0.547,0.395,0.154,-142.151,111.267,-9.460
0.539,0.409,0.112,-134.827,122.070,-3.845
0.513,0.431,0.080,-129.150,132.935,2.625
0.473,0.446,0.073,-129.761,138.916,7.629
0.435,0.451,0.067,-136.475,136.414,8.301
0.413,0.448,0.063,-148.376,128.540,3.967
0.415,0.442,0.045,-162.598,117.615,-4.089
0.431,0.434,-0.018,-175.232,107.727,-12.512
0.456,0.406,-0.109,-184.265,102.112,-19.531
0.490,0.384,-0.238,-184.387,104.248,-21.057
0.505,0.380,-0.328,-173.462,117.859,-16.724
0.501,0.378,-0.360,-159.729,136.780,-9.827
0.506,0.377,-0.372,-150.208,150.513,-3.662
0.509,0.386,-0.374,-148.071,155.823,-0.549
0.500,0.353,-0.388,-151.672,155.640,0.122
0.555,0.406,-0.462,-156.982,152.039,1.709
0.571,0.344,-0.489,-164.001,149.109,2.563
0.534,0.307,-0.503,-168.640,144.409,0.122
0.563,0.324,-0.555,-175.476,147.034,7.996
0.585,0.271,-0.609,-189.453,150.574,13.000
0.582,0.251,-0.679,-194.946,150.635,17.761
0.552,0.249,-0.756,-190.552,150.940,25.757
0.499,0.218,-0.843,-187.866,152.405,30.396
0.474,0.203,-0.927,-180.969,152.832,29.968
0.480,0.239,-0.972,-168.701,148.926,24.963
0.480,0.238,-0.970,-162.354,139.709,19.165
0.482,0.199,-0.956,-164.856,128.235,15.869
0.485,0.182,-0.943,-169.189,115.967,14.160
0.478,0.158,-0.924,-174.622,105.530,13.062
0.462,0.115,-0.897,-181.030,96.375,12.817
0.437,0.086,-0.916,-185.364,89.417,13.794
0.412,0.061,-0.955,-187.988,89.661,16.296
0.397,0.022,-0.970,-190.674,93.933,19.348
0.394,-0.035,-0.988,-194.031,94.604,21.301
0.378,-0.104,-1.048,-197.449,90.820,22.339
0.371,-0.146,-1.133,-199.341,87.585,26.245
0.362,-0.187,-1.185,-199.463,85.388,31.311
0.353,-0.218,-1.232,-199.707,80.078,32.410
0.354,-0.229,-1.266,-199.951,69.458,30.457
0.349,-0.238,-1.276,-196.655,52.856,26.489
0.339,-0.266,-1.262,-190.308,36.072,20.203
0.335,-0.307,-1.270,-183.655,23.376,14.465
0.327,-0.347,-1.290,-174.133,16.968,10.315
0.345,-0.368,-1.363,-164.795,16.907,9.155
0.364,-0.393,-1.469,-156.677,22.644,9.888
0.385,-0.398,-1.593,-147.827,31.006,13.245
0.408,-0.400,-1.712,-134.644,35.645,17.212
0.419,-0.393,-1.820,-118.591,35.034,19.958
0.407,-0.376,-1.931,-93.628,29.053,22.217
0.375,-0.283,-1.954,-61.707,21.179,21.851
0.342,-0.228,-1.926,-31.311,14.099,18.127
0.310,-0.220,-1.851,-5.005,9.216,12.146
0.318,-0.229,-1.777,17.639,5.798,4.333
0.359,-0.225,-1.683,34.546,3.723,-2.258
0.380,-0.268,-1.630,50.537,0.977,-4.883
0.412,-0.270,-1.565,59.875,-1.282,-4.822
0.400,-0.272,-1.529,69.458,-3.723,-3.479
0.412,-0.231,-1.504,81.238,-2.930,1.953
0.388,-0.188,-1.500,93.994,0.305,5.920
0.378,-0.167,-1.481,107.117,3.601,8.484
0.377,-0.144,-1.472,119.629,5.432,6.409
0.370,-0.145,-1.441,131.531,3.906,3.967
0.368,-0.137,-1.438,140.686,1.160,3.479
0.359,-0.126,-1.436,149.353,-1.404,4.761
0.352,-0.104,-1.426,158.020,-6.042,5.554
0.345,-0.077,-1.388,165.283,-12.634,5.615
0.337,-0.056,-1.349,169.556,-20.325,4.028
0.331,-0.046,-1.298,171.997,-29.053,2.441
0.340,-0.004,-1.288,174.194,-36.133,2.319
0.325,-0.009,-1.259,177.246,-43.091,0.549

-0.916,-0.734,1.904,227.112,-142.334,27.893
-1.167,-0.949,2.373,215.027,-120.972,25.146
-1.472,-1.279,3.056,191.223,-96.375,14.160
-1.573,-1.517,3.700,149.109,-65.186,-2.686
-1.413,-1.485,4.000,83.374,-28.870,-17.395
-0.734,-1.193,4.000,-7.812,11.658,-39.185
-0.502,-0.870,3.696,-94.604,40.833,-53.162
-0.389,-0.813,2.802,-123.291,30.579,-40.405
-0.296,-0.679,1.932,-140.564,43.091,-23.987
-0.191,-0.548,1.193,-134.460,61.401,-6.165
-0.099,-0.383,0.707,-121.216,82.458,10.986
0.005,-0.197,0.484,-102.295,102.600,28.076
0.090,-0.004,0.455,-85.632,114.624,41.504
0.152,0.148,0.506,-78.552,117.981,49.927
0.187,0.250,0.587,-81.421,113.770,53.040
0.202,0.301,0.650,-89.844,105.286,52.063
0.199,0.315,0.683,-100.159,97.290,48.157
0.201,0.317,0.689,-110.107,91.003,44.189
0.192,0.310,0.678,-118.408,86.792,41.626
0.182,0.296,0.672,-124.634,84.167,40.771
0.161,0.275,0.671,-127.319,82.703,40.588
0.147,0.270,0.662,-125.183,82.886,39.307
0.151,0.277,0.677,-122.375,83.801,36.194
0.148,0.282,0.693,-120.483,84.290,32.166
0.162,0.296,0.693,-118.774,85.083,28.015
0.173,0.323,0.689,-119.141,86.975,24.475
0.188,0.339,0.685,-122.498,89.478,21.851
0.198,0.363,0.673,-126.404,92.712,19.836
0.212,0.375,0.655,-129.517,96.130,17.578
0.214,0.394,0.629,-131.592,99.182,15.198
0.230,0.412,0.609,-132.874,101.196,12.390
0.238,0.424,0.583,-134.033,102.600,8.484
0.254,0.442,0.552,-134.216,103.333,5.188
0.265,0.455,0.531,-133.972,104.065,2.075
0.266,0.467,0.508,-132.629,105.103,-0.916
0.278,0.479,0.487,-130.432,106.018,-3.845
0.301,0.493,0.470,-128.845,105.408,-8.301
0.349,0.502,0.464,-128.784,104.370,-12.512
0.382,0.498,0.454,-129.211,104.431,-14.099
0.414,0.491,0.429,-128.784,106.628,-12.756
0.459,0.502,0.407,-127.075,110.168,-9.766
0.483,0.502,0.396,-126.709,114.136,-5.493
0.486,0.489,0.383,-128.296,117.493,0.305
0.493,0.495,0.353,-129.517,119.141,6.897
0.485,0.483,0.339,-131.531,119.263,11.292
0.494,0.498,0.315,-133.545,117.798,13.977
0.486,0.489,0.255,-137.207,115.173,13.733
0.496,0.487,0.198,-142.761,113.281,14.526
0.504,0.478,0.129,-145.691,116.089,17.090
0.501,0.484,0.084,-143.555,121.948,22.644
0.496,0.499,0.047,-137.329,128.357,29.785
0.456,0.513,0.043,-133.850,134.399,33.752
0.432,0.521,0.046,-135.498,136.597,36.804
0.410,0.519,0.044,-142.578,132.690,36.682
0.387,0.512,0.020,-153.015,124.573,33.691
0.383,0.502,-0.026,-165.588,117.432,31.799
0.390,0.483,-0.096,-176.086,112.915,31.433
0.371,0.459,-0.163,-179.932,114.319,34.790
0.393,0.463,-0.262,-174.500,123.108,42.358
0.342,0.477,-0.318,-167.847,134.521,51.392
0.315,0.462,-0.346,-165.710,143.799,58.716
0.279,0.462,-0.348,-168.762,141.724,61.096
0.282,0.474,-0.386,-177.795,130.005,58.289
0.289,0.477,-0.444,-188.782,119.385,52.856
0.302,0.464,-0.505,-195.862,115.845,48.584
0.291,0.449,-0.563,-197.571,119.812,48.523
0.314,0.448,-0.620,-195.740,128.784,53.040
0.284,0.428,-0.663,-196.411,139.465,59.082
0.248,0.387,-0.704,-201.233,147.034,65.369
0.198,0.367,-0.765,-203.918,147.400,69.763
0.183,0.376,-0.823,-201.904,139.954,70.496
0.173,0.308,-0.877,-196.045,123.962,65.613
0.184,0.356,-0.967,-180.420,102.905,55.359
0.206,0.384,-1.053,-168.701,91.370,48.218
0.213,0.353,-1.102,-167.175,91.492,44.739
0.207,0.329,-1.125,-164.795,94.482,42.358
0.197,0.325,-1.133,-161.560,97.046,42.786
0.191,0.314,-1.156,-161.804,97.107,45.349
0.180,0.295,-1.206,-164.062,93.933,48.950
0.158,0.285,-1.275,-165.955,90.454,52.429
0.127,0.264,-1.342,-165.588,86.975,54.993
0.103,0.258,-1.402,-161.194,79.895,55.420
0.091,0.253,-1.440,-152.649,67.810,51.575
0.096,0.274,-1.466,-141.235,52.551,44.617
0.105,0.271,-1.467,-129.456,39.063,36.011
0.096,0.253,-1.465,-117.981,30.029,28.625
0.082,0.244,-1.455,-107.300,28.809,24.963
0.080,0.250,-1.450,-98.267,31.738,22.827
0.078,0.242,-1.448,-90.210,31.921,20.630
0.077,0.251,-1.467,-81.726,28.687,18.250
0.071,0.254,-1.493,-73.792,25.024,15.198
0.077,0.264,-1.512,-66.223,22.217,12.024
0.080,0.263,-1.503,-57.434,18.433,7.751
0.093,0.262,-1.492,-49.988,13.062,2.747
0.108,0.254,-1.489,-42.908,6.104,-1.587
0.124,0.267,-1.483,-35.339,-0.488,-4.333
0.136,0.276,-1.468,-27.588,-3.357,-6.653
0.148,0.288,-1.448,-20.508,-3.540,-8.911
0.165,0.298,-1.425,-13.489,-3.357,-10.254
0.187,0.300,-1.408,-7.629,-4.272,-11.780
0.209,0.302,-1.398,-2.686,-6.226,-12.878
0.225,0.300,-1.389,3.540,-8.423,-12.573
0.232,0.301,-1.380,10.010,-9.094,-10.742
0.229,0.304,-1.363,16.724,-8.972,-9.033
0.224,0.313,-1.377,23.682,-9.644,-7.141
0.211,0.319,-1.376,30.334,-9.094,-4.822
0.201,0.319,-1.389,36.316,-7.874,-3.601
0.188,0.309,-1.411,41.992,-7.568,-3.174
0.174,0.319,-1.439,49.133,-8.789,-2.869
0.156,0.323,-1.450,57.373,-11.902,-3.052
0.146,0.324,-1.448,65.063,-15.320,-4.333
0.143,0.319,-1.439,72.327,-19.958,-6.226
0.139,0.312,-1.434,78.979,-24.963,-7.690
0.128,0.307,-1.433,85.693,-28.809,-8.240
0.124,0.316,-1.427,92.468,-31.067,-8.972
0.119,0.317,-1.406,99.792,-33.142,-10.437
0.113,0.311,-1.381,107.300,-36.804,-12.146
0.117,0.313,-1.366,113.586,-40.894,-13.672
0.117,0.307,-1.364,119.019,-44.556,-15.381

-0.841,-1.066,2.122,276.855,-166.016,-43.518
-1.278,-1.382,2.948,239.502,-168.884,-54.932
-1.690,-1.901,3.941,186.340,-163.940,-67.871
-1.616,-2.212,4.000,121.155,-141.602,-82.214
-1.093,-1.851,4.000,47.607,-91.492,-103.088
-0.237,-1.316,4.000,-42.847,-34.485,-111.206
-0.161,-1.207,3.909,-122.009,9.888,-82.947
-0.104,-1.077,2.524,-140.137,46.570,-24.902
-0.107,-0.887,1.175,-130.249,107.361,20.874
-0.038,-0.517,0.495,-108.521,154.297,61.279
0.047,-0.121,0.187,-88.440,176.025,88.013
0.117,0.245,0.099,-79.651,167.297,94.971
0.120,0.496,0.121,-87.036,131.531,82.764
0.140,0.630,0.167,-103.149,91.675,58.655
0.181,0.680,0.220,-117.004,57.983,33.508
0.196,0.654,0.279,-124.390,34.180,15.503
0.202,0.609,0.359,-124.878,23.499,6.226
0.196,0.575,0.442,-118.591,23.010,3.052
0.178,0.535,0.528,-109.985,30.945,4.578
0.160,0.485,0.596,-101.196,42.480,9.338
0.132,0.422,0.675,-93.140,54.382,14.099
0.136,0.386,0.789,-84.839,61.829,15.564
0.146,0.365,0.828,-81.238,65.247,13.916
0.162,0.340,0.870,-83.374,67.139,11.536
0.173,0.325,0.870,-88.806,68.298,8.423
0.202,0.326,0.855,-94.421,70.313,5.249
0.224,0.327,0.842,-100.586,72.998,2.258
0.247,0.332,0.817,-104.980,75.562,-0.610
0.277,0.352,0.795,-107.117,77.881,-3.479
0.308,0.370,0.769,-109.924,80.200,-6.409
0.328,0.376,0.747,-112.244,82.397,-9.583
0.363,0.388,0.732,-112.549,84.412,-12.573
0.381,0.414,0.719,-113.647,85.144,-15.625
0.393,0.417,0.705,-117.737,84.961,-18.494
0.404,0.424,0.676,-122.253,83.618,-21.484
0.417,0.423,0.632,-126.526,82.458,-24.048
0.434,0.432,0.599,-129.822,83.008,-25.269
0.447,0.439,0.571,-132.446,85.144,-24.658
0.457,0.441,0.525,-135.681,88.318,-22.034
0.452,0.439,0.488,-137.817,93.079,-17.517
0.457,0.452,0.459,-137.390,99.487,-12.268
0.440,0.450,0.440,-136.658,106.018,-7.690
0.428,0.446,0.409,-135.437,110.901,-4.395
0.420,0.453,0.382,-135.071,112.671,-3.296
0.413,0.468,0.344,-135.986,111.511,-4.089
0.406,0.469,0.303,-139.099,108.521,-5.859
0.422,0.462,0.269,-141.235,105.225,-7.996
0.433,0.458,0.246,-141.357,103.699,-10.010
0.443,0.456,0.228,-142.029,104.919,-9.277
0.448,0.444,0.207,-145.874,106.750,-6.165
0.438,0.438,0.177,-150.452,108.704,-2.747
0.432,0.422,0.144,-154.907,112.244,0.977
0.421,0.412,0.088,-158.813,115.906,4.883
0.408,0.418,0.016,-160.217,119.385,9.766
0.402,0.419,-0.052,-160.950,124.146,13.489
0.366,0.402,-0.108,-159.546,123.657,10.986
0.367,0.401,-0.159,-157.959,119.263,7.751
0.394,0.401,-0.213,-160.034,114.563,4.150
0.412,0.383,-0.254,-161.621,112.000,0.061
0.447,0.375,-0.291,-161.621,114.014,-0.488
0.460,0.360,-0.339,-161.377,118.774,2.563
0.459,0.359,-0.381,-160.034,123.413,6.714
0.460,0.363,-0.416,-159.241,125.000,9.888
0.473,0.364,-0.446,-161.682,121.399,11.108
0.486,0.364,-0.491,-164.856,113.831,10.132
0.497,0.349,-0.545,-167.358,107.056,9.583
0.500,0.347,-0.595,-166.992,104.736,11.902
0.487,0.335,-0.634,-165.283,109.253,16.846
0.460,0.326,-0.659,-163.452,116.516,23.376
0.427,0.325,-0.671,-164.001,119.568,28.564
0.416,0.330,-0.708,-167.480,116.394,31.433
0.364,0.305,-0.764,-170.349,112.000,33.569
0.383,0.296,-0.838,-171.326,112.976,38.940
0.318,0.294,-0.910,-166.870,111.572,38.269
0.297,0.292,-0.985,-165.344,116.516,41.931
0.278,0.285,-1.040,-166.992,121.582,47.241
0.240,0.288,-1.104,-170.166,119.568,49.866
0.219,0.288,-1.200,-173.279,112.732,49.744
0.196,0.282,-1.260,-170.410,101.196,45.776
0.189,0.272,-1.293,-165.344,86.731,40.710
0.195,0.264,-1.330,-160.889,73.059,36.499
0.208,0.256,-1.373,-155.518,63.782,33.020
0.220,0.257,-1.414,-148.865,59.143,30.640
0.233,0.260,-1.453,-141.052,57.678,29.297
0.241,0.260,-1.464,-134.705,56.519,29.175
0.241,0.265,-1.465,-127.197,51.331,27.710
0.251,0.271,-1.462,-118.652,43.640,23.987
0.263,0.273,-1.439,-110.718,36.377,20.203
0.275,0.257,-1.406,-103.210,30.090,16.968
0.281,0.255,-1.379,-96.252,24.719,15.503
0.287,0.250,-1.368,-89.539,21.484,14.587
0.294,0.244,-1.380,-82.336,21.179,14.038
0.299,0.246,-1.373,-74.036,24.475,14.893
0.284,0.242,-1.390,-66.406,27.954,16.052
0.282,0.245,-1.413,-58.716,28.992,16.663
0.283,0.243,-1.438,-52.002,25.940,15.686
0.287,0.242,-1.453,-45.837,20.752,14.160
0.284,0.245,-1.461,-39.063,17.334,13.184
0.283,0.239,-1.467,-30.273,15.564,10.986
0.279,0.250,-1.476,-18.982,13.184,7.935
0.283,0.255,-1.476,-7.324,10.437,4.517
0.291,0.252,-1.485,3.540,7.080,1.282
0.300,0.257,-1.474,13.977,4.883,-0.183
0.315,0.264,-1.465,23.071,3.662,-1.038
0.328,0.257,-1.463,29.541,1.709,-1.160
0.342,0.261,-1.469,34.851,0.366,0.854
0.333,0.264,-1.479,41.321,0.916,3.540
0.322,0.280,-1.481,50.232,2.380,5.249
0.313,0.293,-1.485,59.631,2.625,5.188
0.297,0.298,-1.487,66.895,1.038,5.249
0.280,0.310,-1.504,73.853,-1.831,5.310
0.268,0.308,-1.522,80.444,-5.249,4.822
0.248,0.308,-1.523,87.891,-8.545,4.333
0.230,0.310,-1.518,96.497,-12.268,3.113
0.220,0.300,-1.521,104.675,-15.564,1.038
0.208,0.296,-1.508,112.976,-19.348,-0.854
0.196,0.300,-1.491,121.887,-24.048,-3.052
0.193,0.292,-1.463,129.822,-29.541,-5.737
0.191,0.298,-1.424,137.878,-34.119,-8.057

-0.676,-0.922,2.182,240.051,-146.912,-31.128
-0.996,-1.232,2.839,209.900,-143.677,-43.335
-1.268,-1.539,3.621,165.894,-134.155,-59.814
-1.228,-1.766,4.000,109.314,-111.450,-77.637
-0.872,-1.580,4.000,43.518,-80.444,-87.524
-0.460,-1.215,4.000,-19.775,-40.894,-78.735
-0.267,-1.129,3.382,-82.458,1.465,-51.514
-0.162,-0.958,2.341,-119.751,51.025,-12.268
-0.115,-0.760,1.365,-124.268,102.173,23.132
-0.077,-0.491,0.865,-112.122,137.634,51.575
-0.034,-0.202,0.661,-98.083,154.175,70.374
-0.036,0.054,0.630,-96.863,143.982,71.167
-0.022,0.250,0.638,-109.436,115.601,55.908
0.006,0.352,0.644,-129.944,82.153,32.471
0.048,0.377,0.632,-148.621,55.298,11.353
0.082,0.375,0.609,-158.936,41.138,-0.916
0.102,0.371,0.609,-158.264,38.696,-5.249
0.113,0.355,0.623,-152.771,45.593,-5.066
0.114,0.337,0.657,-145.142,57.983,-1.648
0.110,0.316,0.689,-136.475,71.899,4.211
0.114,0.304,0.725,-128.845,83.679,8.911
0.125,0.280,0.731,-126.648,91.003,10.925
0.140,0.270,0.727,-127.869,94.055,10.620
0.155,0.269,0.700,-129.944,95.093,8.423
0.176,0.275,0.666,-133.179,95.337,4.822
0.201,0.287,0.632,-136.597,95.215,-0.061
0.229,0.307,0.595,-139.221,94.910,-4.944
0.258,0.316,0.566,-140.808,94.666,-10.132
0.292,0.330,0.547,-140.503,95.093,-15.320
0.331,0.344,0.536,-138.306,95.947,-20.386
0.378,0.369,0.524,-137.024,97.900,-23.743
0.430,0.372,0.510,-138.672,100.586,-24.353
0.470,0.371,0.492,-142.151,102.905,-20.935
0.499,0.374,0.462,-145.874,105.530,-15.259
0.511,0.371,0.421,-151.428,109.497,-8.606
0.516,0.372,0.357,-156.921,114.319,-1.404
0.511,0.383,0.289,-160.400,117.126,5.249
0.506,0.395,0.232,-161.499,117.188,8.850
0.496,0.404,0.188,-162.170,115.784,9.705
0.481,0.408,0.153,-161.743,112.915,9.033
0.473,0.421,0.125,-161.072,109.985,7.751
0.465,0.425,0.112,-162.170,107.239,6.836
0.466,0.421,0.101,-166.260,105.957,6.714
0.460,0.432,0.071,-170.166,106.567,7.812
0.463,0.413,0.045,-175.354,109.802,11.658
0.451,0.418,-0.011,-178.772,113.525,16.479
0.435,0.434,-0.060,-181.213,118.774,22.644
0.399,0.440,-0.100,-184.326,124.268,28.870
0.361,0.438,-0.131,-188.477,125.549,31.921
0.332,0.427,-0.158,-191.833,120.605,30.212
0.316,0.434,-0.186,-194.763,109.558,24.597
0.338,0.422,-0.217,-199.768,98.206,18.494
0.368,0.411,-0.301,-204.590,93.262,14.832
0.387,0.391,-0.377,-203.857,102.051,16.846
0.386,0.382,-0.453,-197.388,121.582,24.719
0.368,0.376,-0.481,-192.444,140.625,34.485
0.342,0.368,-0.494,-192.688,150.024,42.725
0.320,0.357,-0.519,-198.975,145.203,47.119
0.301,0.338,-0.591,-208.923,129.089,46.387
0.305,0.324,-0.671,-215.271,110.535,42.114
0.318,0.319,-0.721,-215.881,97.168,37.292
0.339,0.294,-0.808,-212.952,95.825,34.668
0.250,0.244,-0.847,-205.627,109.436,36.987
0.276,0.293,-0.919,-200.073,129.578,45.898
0.222,0.270,-0.933,-195.801,133.850,48.340
0.184,0.249,-0.950,-201.904,122.803,46.875
0.203,0.228,-0.999,-214.905,110.474,47.668
0.179,0.197,-1.028,-221.191,92.834,43.091
0.176,0.178,-1.043,-222.778,75.623,38.086
0.166,0.133,-1.084,-218.140,61.707,32.410
0.146,0.103,-1.172,-207.886,57.251,27.100
0.125,0.053,-1.248,-196.106,67.566,25.879
0.121,0.071,-1.317,-181.824,77.820,26.001
0.106,0.106,-1.380,-171.814,78.125,23.254
0.121,0.075,-1.451,-171.753,70.618,20.630
0.135,0.059,-1.504,-171.387,55.908,17.029
0.144,0.041,-1.557,-165.100,38.879,12.695
0.159,0.039,-1.610,-155.212,25.452,8.850
0.176,0.042,-1.664,-142.883,17.151,5.310
0.192,0.045,-1.690,-127.991,13.062,1.404
0.213,0.057,-1.709,-111.572,12.207,-2.319
0.234,0.070,-1.719,-95.154,13.306,-3.784
0.238,0.084,-1.712,-80.017,14.160,-3.723
0.258,0.096,-1.722,-66.467,15.381,-3.906
0.275,0.096,-1.730,-53.894,15.198,-4.639
0.293,0.103,-1.726,-41.260,13.611,-4.944
0.299,0.107,-1.700,-29.175,10.193,-5.432
0.306,0.116,-1.664,-16.235,6.653,-5.798
0.314,0.131,-1.625,-3.357,5.249,-5.920
0.312,0.149,-1.564,8.606,6.042,-6.104
0.319,0.170,-1.514,19.287,7.568,-5.615
0.331,0.189,-1.478,27.771,9.399,-4.456
0.340,0.200,-1.451,34.424,10.132,-3.601
0.342,0.211,-1.430,41.260,10.254,-2.625
0.342,0.224,-1.427,48.340,9.766,-1.160
0.329,0.226,-1.427,53.894,10.071,0.610
0.317,0.235,-1.435,59.570,9.827,2.197
0.304,0.232,-1.440,66.223,6.775,2.075
0.298,0.223,-1.439,71.228,2.991,2.014
0.292,0.220,-1.439,76.294,-1.221,2.441
0.271,0.219,-1.445,82.764,-5.188,2.502
0.259,0.217,-1.432,90.088,-7.935,1.953
0.245,0.217,-1.418,96.985,-10.010,1.282
0.231,0.227,-1.410,103.577,-11.902,1.343
0.216,0.235,-1.394,109.863,-15.625,0.793
0.209,0.242,-1.383,114.929,-20.081,-0.244
0.204,0.255,-1.366,119.324,-25.330,-0.977
0.202,0.265,-1.343,123.352,-31.128,-1.831
0.198,0.265,-1.307,127.625,-36.316,-3.357
0.198,0.262,-1.259,132.568,-40.894,-5.371
0.205,0.265,-1.217,136.780,-45.898,-7.385
0.209,0.262,-1.180,139.771,-51.331,-8.850
0.214,0.255,-1.158,142.151,-56.335,-9.705
0.221,0.252,-1.143,145.813,-59.692,-9.766
0.223,0.254,-1.116,149.353,-60.547,-8.667
0.221,0.253,-1.096,154.358,-60.913,-8.179
0.221,0.263,-1.071,160.278,-60.608,-8.240
0.221,0.282,-1.037,166.687,-59.082,-8.057
0.222,0.292,-1.009,172.546,-60.120,-8.667

-0.608,-0.780,2.321,200.317,-107.300,-19.531
-0.794,-0.930,2.827,172.180,-99.854,-29.419
-0.924,-1.069,3.351,134.827,-86.548,-40.344
-0.873,-1.091,3.705,85.022,-64.941,-48.462
-0.683,-0.990,3.730,29.724,-37.231,-53.223
-0.434,-0.801,3.287,-22.949,-6.653,-48.584
-0.273,-0.736,2.619,-70.923,25.452,-32.471
-0.170,-0.595,1.998,-97.473,54.688,-13.855
-0.064,-0.441,1.410,-100.342,81.848,1.465
0.027,-0.252,1.033,-95.215,102.661,17.334
0.090,-0.071,0.825,-88.196,113.342,29.419
0.127,0.098,0.721,-85.999,112.427,35.828
0.147,0.231,0.663,-90.820,102.661,34.973
0.153,0.315,0.644,-99.670,88.379,28.809
0.163,0.369,0.639,-108.826,74.585,21.423
0.171,0.378,0.645,-116.699,65.186,15.381
0.172,0.375,0.665,-120.972,60.974,12.390
0.169,0.368,0.681,-122.070,61.035,11.841
0.161,0.359,0.694,-121.399,64.026,12.695
0.159,0.350,0.698,-118.958,68.542,13.611
0.159,0.346,0.705,-115.967,72.510,13.855
0.161,0.338,0.709,-114.563,75.562,12.939
0.172,0.337,0.710,-115.234,76.904,10.437
0.185,0.336,0.708,-117.981,77.148,6.836
0.201,0.341,0.698,-120.972,77.393,2.930
0.229,0.346,0.679,-123.474,78.613,-1.160
0.249,0.354,0.654,-125.549,81.482,-3.662
0.267,0.365,0.633,-125.610,85.693,-5.615
0.284,0.378,0.617,-125.061,90.393,-8.362
0.302,0.388,0.595,-124.451,93.872,-11.658
0.319,0.391,0.579,-124.939,96.252,-14.832
0.347,0.392,0.565,-125.061,97.961,-18.250
0.375,0.403,0.544,-125.671,98.999,-21.851
0.415,0.383,0.547,-129.517,100.342,-23.499
0.464,0.372,0.563,-133.179,99.976,-21.606
0.481,0.379,0.535,-137.207,99.487,-16.846
0.501,0.368,0.480,-142.883,102.417,-11.169
0.507,0.361,0.412,-144.226,108.582,-4.944
0.509,0.373,0.356,-141.968,115.417,0.488
0.509,0.377,0.315,-141.052,120.789,5.371
0.510,0.382,0.286,-142.517,123.352,9.521
0.502,0.381,0.267,-146.423,123.596,12.634
0.501,0.382,0.265,-153.198,122.620,16.113
0.505,0.388,0.269,-163.757,119.812,20.508
0.530,0.394,0.242,-179.443,117.249,25.940
0.553,0.392,0.190,-199.158,117.798,35.889
0.546,0.380,0.132,-221.375,120.544,50.842
0.512,0.371,0.039,-241.882,121.887,65.430
0.464,0.354,-0.067,-258.240,121.521,76.965
0.406,0.351,-0.162,-266.296,120.361,82.886
0.365,0.361,-0.220,-268.005,115.906,82.031
0.353,0.378,-0.267,-263.550,105.591,74.341
0.369,0.393,-0.315,-258.423,92.163,63.110
0.384,0.380,-0.375,-252.197,82.275,51.636
0.400,0.359,-0.428,-244.690,80.688,44.495
0.417,0.368,-0.464,-236.511,86.853,43.091
0.407,0.370,-0.529,-230.408,98.816,45.410
0.377,0.342,-0.565,-227.905,116.577,51.636
0.338,0.333,-0.620,-226.135,133.850,59.631
0.285,0.336,-0.673,-226.868,142.883,63.599
0.252,0.322,-0.734,-229.980,139.282,63.660
0.233,0.322,-0.799,-233.398,122.742,59.937
0.233,0.318,-0.880,-235.779,97.656,51.697
0.232,0.291,-0.939,-235.046,74.829,40.955
0.231,0.255,-1.019,-228.882,65.247,31.738
0.187,0.188,-1.041,-216.431,73.303,27.344
0.205,0.192,-1.074,-206.055,93.750,31.372
0.122,0.206,-1.072,-193.481,97.412,28.809
0.121,0.208,-1.131,-193.359,89.478,22.827
0.141,0.176,-1.169,-198.181,72.876,15.320
0.153,0.148,-1.192,-195.435,51.819,6.775
0.163,0.115,-1.196,-190.186,38.025,2.014
0.178,0.069,-1.191,-183.289,28.992,-1.831
0.188,0.035,-1.223,-178.528,26.184,-1.892
0.161,0.019,-1.236,-173.157,29.297,0.793
0.151,0.017,-1.278,-167.480,30.945,0.610
0.156,0.009,-1.329,-163.574,30.212,-1.770
0.161,-0.010,-1.361,-158.264,27.466,-4.517
0.176,-0.015,-1.377,-149.597,21.179,-8.423
0.200,-0.024,-1.373,-139.893,12.573,-12.878
0.223,-0.043,-1.357,-130.432,4.578,-16.418
0.234,-0.040,-1.335,-120.605,-0.244,-17.334
0.245,-0.040,-1.314,-112.305,-1.160,-17.883
0.257,-0.043,-1.299,-105.896,0.671,-18.494
0.271,-0.050,-1.302,-100.952,2.319,-17.761
0.281,-0.068,-1.307,-96.252,2.625,-15.869
0.282,-0.062,-1.323,-91.797,3.357,-13.184
0.297,-0.072,-1.386,-84.900,5.310,-10.620
0.308,-0.070,-1.430,-77.515,7.690,-8.179
0.324,-0.072,-1.472,-68.481,8.850,-6.409
0.338,-0.071,-1.500,-59.021,10.864,-4.883
0.344,-0.077,-1.525,-48.340,12.512,-3.906
0.346,-0.076,-1.539,-37.415,13.977,-2.747
0.334,-0.076,-1.550,-26.062,15.869,-1.282
0.314,-0.064,-1.550,-14.404,18.311,0.610
0.297,-0.055,-1.549,-3.418,18.982,1.465
0.288,-0.054,-1.543,7.446,17.700,1.099
0.289,-0.055,-1.528,18.372,15.198,0.549
0.293,-0.052,-1.520,27.771,12.939,0.488
0.286,-0.051,-1.523,36.133,11.963,1.099
0.279,-0.038,-1.528,43.762,12.695,2.441
0.272,-0.023,-1.533,52.795,12.390,3.174
0.266,0.001,-1.534,61.768,11.353,3.357
0.261,0.010,-1.532,70.190,10.010,3.174
0.255,0.013,-1.550,76.599,8.728,3.418
0.241,0.015,-1.569,83.313,7.874,4.395
0.234,0.023,-1.592,90.637,6.653,4.517
0.231,0.023,-1.596,99.304,3.967,3.540
0.244,0.012,-1.584,107.361,-0.732,2.869
0.234,0.011,-1.573,114.624,-5.920,3.723
0.217,0.021,-1.566,122.314,-10.132,4.333
0.202,0.029,-1.556,131.653,-12.268,3.906
0.195,0.036,-1.543,141.357,-13.733,2.197
0.192,0.031,-1.535,150.146,-16.724,0.671
0.190,0.043,-1.518,158.325,-21.057,-0.305
0.194,0.059,-1.484,166.809,-26.978,-1.587
0.199,0.047,-1.455,173.157,-34.668,-3.235
0.195,0.042,-1.428,177.917,-40.894,-3.967
0.193,0.054,-1.386,185.242,-45.105,-4.333

-0.580,-0.845,2.256,219.971,-119.690,-22.217
-0.824,-1.044,2.883,194.519,-116.455,-30.762
-1.010,-1.219,3.488,155.823,-108.521,-40.649
-1.015,-1.321,3.956,103.760,-88.257,-50.354
-0.765,-1.241,4.000,46.570,-58.167,-57.495
-0.470,-1.006,3.701,-12.268,-24.536,-52.734
-0.271,-0.913,2.921,-68.970,12.329,-31.433
-0.159,-0.750,2.149,-105.469,49.805,-5.432
-0.064,-0.550,1.452,-113.647,84.595,18.188
0.000,-0.345,1.021,-109.741,111.572,40.466
0.048,-0.141,0.790,-99.304,127.625,56.458
0.077,0.057,0.701,-93.750,129.211,63.293
0.090,0.210,0.665,-98.755,117.310,60.852
0.089,0.303,0.656,-111.755,98.816,52.185
0.099,0.351,0.656,-125.000,81.238,41.260
0.115,0.355,0.660,-134.277,68.787,31.738
0.121,0.347,0.682,-139.282,62.012,26.489
0.108,0.328,0.712,-141.418,61.340,24.780
0.090,0.316,0.746,-140.259,64.697,24.414
0.089,0.307,0.776,-138.306,70.251,23.560
0.084,0.282,0.798,-137.146,75.195,21.606
0.099,0.271,0.801,-136.536,79.102,18.555
0.119,0.260,0.800,-137.939,81.726,15.198
0.148,0.255,0.801,-141.113,82.947,12.817
0.175,0.261,0.790,-145.996,84.656,11.353
0.201,0.273,0.773,-152.039,86.731,11.169
0.223,0.283,0.753,-158.630,89.661,10.986
0.240,0.289,0.709,-164.246,93.323,10.254
0.250,0.304,0.652,-166.870,96.130,9.277
0.281,0.340,0.600,-169.495,96.863,7.812
0.289,0.352,0.559,-173.523,96.741,4.272
0.307,0.365,0.514,-178.162,95.337,0.366
0.322,0.375,0.473,-182.007,92.651,-3.418
0.337,0.384,0.429,-184.509,90.759,-7.080
0.361,0.387,0.381,-186.157,89.905,-10.376
0.377,0.378,0.340,-185.120,92.468,-11.292
0.390,0.380,0.314,-179.626,100.159,-9.705
0.401,0.383,0.293,-174.927,109.192,-6.531
0.405,0.387,0.276,-174.377,116.028,-2.625
0.404,0.388,0.247,-177.246,120.178,2.258
0.404,0.378,0.196,-183.228,123.047,7.568
0.403,0.382,0.135,-190.125,125.610,12.939
0.394,0.380,0.073,-197.510,128.357,18.921
0.370,0.382,0.021,-203.491,130.127,24.109
0.343,0.381,-0.024,-208.496,130.432,26.306
0.339,0.393,-0.070,-213.074,127.747,26.123
0.326,0.383,-0.119,-218.567,121.033,23.743
0.329,0.374,-0.178,-224.243,114.319,20.325
0.326,0.367,-0.237,-227.478,109.009,17.639
0.324,0.362,-0.300,-227.417,106.079,16.602
0.325,0.353,-0.365,-226.074,106.506,16.663
0.316,0.343,-0.414,-224.426,110.535,17.822
0.316,0.329,-0.462,-223.145,115.723,19.836
0.307,0.323,-0.533,-221.497,122.375,21.851
0.296,0.308,-0.598,-219.727,132.874,24.658
0.284,0.308,-0.658,-217.712,143.188,27.771
0.267,0.300,-0.720,-217.224,148.743,29.785
0.255,0.288,-0.764,-219.360,147.217,29.907
0.249,0.270,-0.801,-224.121,136.902,28.015
0.264,0.245,-0.829,-230.530,118.103,24.231
0.298,0.219,-0.862,-236.877,94.604,20.508
0.315,0.174,-0.909,-241.028,75.867,18.860
0.295,0.134,-0.969,-242.004,73.792,20.935
0.266,0.104,-1.030,-238.525,87.891,25.452
0.214,0.122,-1.098,-231.384,104.492,30.151
0.218,0.112,-1.124,-227.844,114.502,32.288
0.180,0.081,-1.113,-222.168,101.746,25.574
0.216,0.066,-1.160,-222.107,82.642,22.583
0.239,0.043,-1.176,-221.680,58.411,17.944
0.276,-0.015,-1.191,-220.520,36.255,14.526
0.279,-0.054,-1.221,-216.309,25.085,17.883
0.253,-0.074,-1.251,-208.618,21.973,21.545
0.214,-0.103,-1.322,-201.660,26.855,22.034
0.214,-0.100,-1.381,-193.420,35.828,20.691
0.218,-0.132,-1.447,-184.143,41.443,17.029
0.222,-0.137,-1.516,-176.086,45.044,14.282
0.225,-0.145,-1.584,-167.725,48.340,11.963
0.241,-0.154,-1.613,-158.691,47.058,8.789
0.268,-0.155,-1.621,-147.949,38.757,5.005
0.289,-0.141,-1.602,-137.878,26.245,2.625
0.295,-0.129,-1.562,-129.761,12.939,1.404
0.301,-0.118,-1.527,-122.925,3.479,-0.122
0.297,-0.135,-1.487,-115.295,1.831,0.854
0.269,-0.147,-1.437,-105.103,7.385,3.601
0.241,-0.149,-1.423,-95.947,15.808,4.883
0.249,-0.143,-1.421,-86.670,23.193,4.150
0.251,-0.171,-1.454,-77.820,27.039,2.625
0.267,-0.184,-1.481,-67.871,26.306,3.296
0.264,-0.183,-1.517,-55.969,21.790,3.235
0.270,-0.190,-1.550,-44.495,18.250,2.991
0.261,-0.198,-1.584,-31.677,14.038,2.197
0.248,-0.202,-1.618,-17.700,11.841,1.831
0.234,-0.208,-1.639,-3.418,10.986,0.793
0.238,-0.215,-1.657,9.521,11.230,-1.770
0.248,-0.223,-1.669,22.156,10.925,-4.089
0.264,-0.219,-1.663,36.804,10.742,-6.531
0.278,-0.229,-1.639,50.415,10.986,-7.385
0.279,-0.247,-1.635,61.279,12.146,-6.409
0.262,-0.233,-1.645,70.923,14.771,-4.089
0.241,-0.201,-1.650,83.313,17.395,-2.930
0.228,-0.177,-1.636,96.069,17.700,-3.235
0.215,-0.168,-1.622,107.361,14.832,-3.601
0.195,-0.165,-1.610,115.356,10.315,-3.540
0.174,-0.156,-1.607,122.375,4.761,-3.479
0.156,-0.162,-1.599,129.761,-0.549,-3.967
0.152,-0.153,-1.590,138.550,-5.371,-5.249
0.163,-0.151,-1.564,147.888,-12.451,-6.592
0.153,-0.153,-1.540,156.555,-20.142,-6.897
0.136,-0.118,-1.507,166.504,-24.902,-6.348
0.132,-0.074,-1.453,177.979,-29.297,-7.812
0.139,-0.058,-1.385,186.279,-36.499,-11.169
0.146,-0.066,-1.337,189.270,-43.518,-12.207
0.152,-0.042,-1.305,190.063,-48.523,-11.536
0.147,-0.004,-1.281,192.871,-52.979,-10.437
0.144,-0.001,-1.256,196.594,-57.312,-11.353
0.140,-0.001,-1.228,200.928,-59.509,-12.573
0.154,0.024,-1.189,206.360,-60.425,-13.855
0.161,0.042,-1.151,211.487,-64.636,-14.038
0.165,0.035,-1.117,215.637,-70.984,-14.282

-0.562,-0.607,2.534,222.351,-134.827,-10.559
-0.717,-0.702,3.015,199.951,-119.690,-21.179
-0.832,-0.855,3.541,165.955,-99.976,-30.273
-0.876,-0.916,3.932,124.634,-80.322,-40.039
-0.748,-0.806,4.000,68.848,-57.373,-46.326
-0.540,-0.673,3.699,-0.427,-27.039,-44.250
-0.355,-0.627,2.962,-66.772,10.742,-29.541
-0.277,-0.498,2.309,-109.070,47.729,-9.460
-0.187,-0.345,1.737,-125.488,82.520,6.592
-0.118,-0.188,1.373,-130.310,108.582,17.273
-0.066,-0.029,1.099,-131.165,118.774,21.912
-0.027,0.093,0.914,-133.606,114.990,21.790
0.005,0.242,0.779,-139.343,102.295,16.418
0.045,0.332,0.670,-146.790,86.609,8.057
0.079,0.383,0.589,-154.297,72.693,0.610
0.099,0.415,0.548,-156.250,63.293,-3.723
0.115,0.440,0.533,-153.076,59.387,-6.287
0.128,0.451,0.536,-148.132,60.303,-8.240
0.138,0.451,0.538,-143.738,62.988,-9.521
0.150,0.442,0.547,-140.747,65.308,-10.925
0.166,0.434,0.541,-137.817,66.345,-12.512
0.183,0.432,0.532,-135.864,67.383,-14.160
0.202,0.423,0.518,-135.498,68.481,-16.113
0.216,0.416,0.498,-134.705,70.190,-17.944
0.233,0.420,0.482,-132.507,72.937,-20.447
0.248,0.428,0.470,-129.883,75.989,-23.499
0.272,0.438,0.468,-128.784,78.796,-26.062
0.290,0.432,0.465,-129.761,81.299,-28.503
0.305,0.455,0.439,-130.737,83.130,-30.457
0.325,0.453,0.417,-131.836,85.083,-32.654
0.355,0.465,0.394,-131.897,86.182,-35.400
0.392,0.452,0.387,-133.179,86.487,-37.842
0.440,0.444,0.396,-134.705,86.548,-37.537
0.466,0.453,0.365,-137.451,86.792,-32.532
0.476,0.450,0.319,-141.357,91.492,-25.818
0.486,0.447,0.270,-144.348,100.708,-20.325
0.487,0.453,0.231,-146.545,109.375,-14.771
0.481,0.457,0.200,-149.170,114.624,-10.010
0.475,0.466,0.165,-152.100,115.601,-7.751
0.470,0.466,0.131,-156.372,112.122,-7.324
0.462,0.467,0.102,-161.255,105.591,-8.484
0.458,0.463,0.074,-166.260,97.412,-11.353
0.463,0.452,0.041,-170.349,89.661,-15.076
0.474,0.437,-0.010,-170.471,87.830,-17.090
0.489,0.445,-0.030,-167.480,94.116,-16.663
0.474,0.414,-0.064,-164.673,105.469,-12.939
0.464,0.433,-0.079,-161.133,117.859,-7.202
0.437,0.439,-0.083,-160.461,126.831,-2.014
0.410,0.447,-0.098,-165.894,127.747,1.221
0.396,0.424,-0.106,-176.331,120.422,2.747
0.379,0.422,-0.138,-187.500,106.628,1.160
0.391,0.395,-0.170,-197.449,91.431,-2.380
0.402,0.384,-0.235,-204.163,83.557,-5.188
0.417,0.361,-0.288,-205.933,88.562,-6.104
0.406,0.332,-0.319,-204.468,104.187,-4.028
0.396,0.346,-0.326,-203.003,120.728,-0.427
0.366,0.312,-0.307,-209.656,130.005,3.418
0.347,0.296,-0.303,-223.450,126.831,4.944
0.337,0.275,-0.297,-241.943,111.694,2.319
0.336,0.231,-0.305,-262.878,90.515,-2.136
0.352,0.181,-0.286,-281.921,70.435,-7.874
0.376,0.087,-0.307,-298.096,58.167,-13.916
0.310,-0.007,-0.305,-309.448,58.960,-17.700
0.315,-0.042,-0.428,-316.650,74.646,-17.212
0.286,-0.222,-0.538,-319.214,98.328,-12.573
0.159,-0.351,-0.646,-310.364,121.155,-7.629
0.148,-0.391,-0.781,-306.702,152.771,4.456
0.143,-0.508,-0.927,-310.242,167.419,12.756
0.117,-0.657,-1.073,-316.895,160.400,16.357
0.131,-0.791,-1.382,-319.763,148.193,19.958
0.150,-0.889,-1.695,-314.880,133.606,19.409
0.225,-0.992,-2.083,-301.208,122.925,17.761
0.269,-1.065,-2.448,-272.888,114.929,16.907
0.275,-0.970,-2.761,-230.164,106.445,15.747
0.290,-0.815,-2.926,-182.800,93.689,18.250
0.250,-0.676,-2.941,-134.644,73.730,19.409
0.216,-0.562,-2.846,-87.219,49.316,17.212
0.187,-0.494,-2.649,-44.067,26.733,10.925
0.165,-0.441,-2.409,-9.216,13.428,4.456
0.181,-0.374,-2.130,15.930,11.169,-0.610
0.210,-0.279,-1.855,32.166,13.428,-4.883
0.259,-0.192,-1.618,39.795,13.855,-7.874
0.304,-0.104,-1.413,41.992,11.292,-8.118
0.347,-0.022,-1.292,40.344,7.202,-5.310
0.385,0.029,-1.243,39.490,4.028,-2.686
0.404,0.047,-1.228,41.870,4.456,-1.160
0.424,0.055,-1.194,47.913,7.690,-0.793
0.443,0.074,-1.177,56.091,9.705,-1.526
0.436,0.043,-1.192,59.265,13.794,-0.916
0.414,0.020,-1.223,61.340,18.372,0.610
0.393,0.036,-1.267,65.613,21.545,1.343
0.365,0.029,-1.287,70.923,21.606,1.343
0.329,0.024,-1.309,76.721,18.738,1.526
0.295,0.026,-1.315,82.031,13.428,2.197
0.263,0.018,-1.332,86.792,6.287,2.441
0.227,0.025,-1.357,92.407,0.244,2.869
0.205,0.020,-1.387,97.900,-2.991,2.380
0.197,0.049,-1.400,104.004,-7.385,1.160
0.183,0.030,-1.399,107.849,-13.367,-1.770
0.189,0.000,-1.390,110.352,-21.240,-2.625
0.191,-0.010,-1.395,113.586,-29.175,-2.136
0.185,-0.021,-1.403,119.568,-33.508,-1.282
0.182,-0.015,-1.405,130.920,-34.119,-2.075
0.192,-0.014,-1.381,143.799,-33.813,-4.456
0.208,-0.001,-1.351,153.564,-34.729,-7.141
0.223,0.012,-1.307,160.583,-38.696,-8.362
0.241,0.032,-1.260,164.368,-45.410,-7.874
0.254,0.044,-1.219,166.626,-53.223,-6.714
0.262,0.082,-1.189,167.908,-58.960,-4.578
0.260,0.126,-1.158,171.387,-61.523,-2.991
0.262,0.161,-1.118,176.331,-61.096,-2.441
0.266,0.196,-1.084,181.641,-59.998,-2.563
0.269,0.225,-1.053,186.157,-60.181,-3.052
0.266,0.244,-1.033,189.514,-60.608,-3.845
0.277,0.277,-1.008,193.176,-62.378,-5.249
0.289,0.306,-0.962,196.533,-67.932,-6.653
0.297,0.313,-0.912,196.533,-74.829,-7.507
0.298,0.333,-0.871,195.374,-81.360,-7.446
0.301,0.342,-0.840,194.824,-87.036,-7.812

-0.614,-0.872,2.536,234.253,-164.673,-23.193
-0.887,-1.042,3.095,198.181,-161.804,-33.936
-1.023,-1.239,3.718,152.161,-144.043,-49.561
-0.961,-1.297,4.000,101.563,-112.549,-65.918
-0.679,-1.128,4.000,40.527,-70.251,-70.068
-0.394,-0.949,3.591,-27.222,-22.583,-55.725
-0.286,-0.858,2.767,-85.327,22.766,-27.649
-0.211,-0.676,2.033,-119.690,66.711,2.869
-0.149,-0.501,1.466,-129.944,107.849,28.687
-0.113,-0.322,1.118,-128.662,134.521,48.462
-0.079,-0.148,0.973,-124.023,143.738,59.814
-0.036,0.025,0.914,-124.939,136.047,59.143
-0.006,0.153,0.870,-135.254,116.577,50.049
0.028,0.237,0.823,-151.978,93.567,38.086
0.060,0.277,0.767,-168.579,74.097,26.733
0.098,0.307,0.706,-179.687,62.317,18.066
0.126,0.316,0.663,-182.922,58.960,13.000
0.146,0.325,0.624,-178.955,61.951,11.841
0.151,0.337,0.593,-169.800,68.115,13.000
0.152,0.344,0.564,-159.241,75.317,13.733
0.162,0.356,0.543,-149.719,80.444,12.817
0.176,0.373,0.539,-143.738,81.909,10.559
0.195,0.386,0.534,-141.907,80.322,7.446
0.217,0.402,0.532,-144.104,76.721,4.211
0.240,0.413,0.522,-148.376,72.510,1.343
0.264,0.425,0.503,-154.053,69.641,-0.549
0.281,0.433,0.479,-159.058,69.519,-1.526
0.296,0.442,0.449,-161.621,72.083,-1.221
0.314,0.453,0.413,-161.560,76.843,-0.610
0.324,0.468,0.371,-161.255,82.764,-0.183
0.330,0.473,0.333,-159.851,88.928,0.000
0.332,0.483,0.299,-156.555,93.994,-0.732
0.341,0.498,0.259,-151.978,95.764,-3.052
0.353,0.510,0.230,-148.560,94.971,-6.592
0.361,0.515,0.210,-145.935,93.750,-11.597
0.382,0.515,0.191,-143.799,92.285,-16.174
0.415,0.520,0.169,-142.883,90.332,-19.714
0.445,0.523,0.147,-142.578,90.149,-20.752
0.470,0.513,0.146,-142.944,91.919,-19.104
0.482,0.524,0.160,-145.142,93.262,-14.648
0.485,0.528,0.141,-150.208,92.529,-9.155
0.472,0.521,0.111,-157.837,90.698,-3.906
0.466,0.517,0.082,-164.673,88.806,-0.244
0.458,0.511,0.046,-169.861,87.708,2.380
0.444,0.502,0.015,-172.791,87.463,4.639
0.432,0.508,-0.029,-173.523,89.355,6.226
0.420,0.500,-0.078,-171.326,93.323,6.714
0.402,0.499,-0.123,-166.504,101.685,7.202
0.382,0.505,-0.150,-161.133,112.854,8.850
0.348,0.504,-0.157,-158.630,119.324,9.949
0.326,0.502,-0.164,-159.668,117.798,9.155
0.312,0.482,-0.153,-164.673,107.849,5.859
0.315,0.472,-0.150,-171.692,91.553,0.671
0.330,0.442,-0.163,-182.007,73.547,-3.479
0.340,0.413,-0.189,-190.979,61.035,-6.653
0.350,0.364,-0.229,-195.129,61.096,-7.996
0.350,0.328,-0.279,-193.970,75.317,-5.859
0.327,0.304,-0.332,-189.270,99.854,-0.549
0.300,0.296,-0.363,-185.425,124.634,7.202
0.262,0.292,-0.402,-187.134,136.047,13.611
0.239,0.295,-0.418,-194.580,130.371,14.282
0.256,0.270,-0.493,-205.383,111.328,9.705
0.277,0.248,-0.510,-217.102,86.487,2.869
0.292,0.235,-0.548,-225.342,65.186,-3.418
0.321,0.193,-0.572,-230.225,54.993,-8.057
0.302,0.152,-0.612,-229.187,60.486,-10.803
0.294,0.103,-0.650,-224.365,80.566,-10.132
0.273,0.072,-0.692,-219.299,104.919,-6.470
0.272,0.058,-0.747,-218.628,118.774,-3.052
0.248,-0.010,-0.806,-224.365,116.089,-0.793
0.299,-0.085,-0.924,-237.183,107.483,6.409
0.261,-0.129,-1.014,-244.202,89.233,9.338
0.281,-0.173,-1.155,-254.456,77.454,13.855
0.264,-0.219,-1.269,-261.414,71.899,14.954
0.272,-0.262,-1.414,-256.348,70.190,11.963
0.266,-0.294,-1.504,-248.962,71.106,9.094
0.254,-0.361,-1.627,-237.549,67.932,6.226
0.258,-0.374,-1.775,-225.037,64.697,6.104
0.257,-0.379,-1.935,-209.167,58.044,4.395
0.291,-0.352,-2.064,-190.063,48.462,0.977
0.303,-0.339,-2.155,-168.396,37.231,-2.625
0.320,-0.336,-2.217,-143.066,27.161,-5.310
0.355,-0.311,-2.252,-116.150,20.813,-7.568
0.386,-0.282,-2.244,-89.600,15.808,-8.911
0.410,-0.263,-2.194,-63.904,11.230,-8.850
0.412,-0.238,-2.133,-39.795,8.667,-6.958
0.401,-0.216,-2.030,-17.578,8.850,-5.188
0.397,-0.201,-1.941,0.244,9.949,-4.761
0.403,-0.183,-1.865,14.587,13.306,-3.845
0.396,-0.147,-1.796,29.785,17.822,-2.258
0.396,-0.106,-1.748,43.579,23.987,0.549
0.388,-0.067,-1.707,57.007,27.832,2.502
0.380,-0.028,-1.673,68.420,28.809,3.540
0.370,-0.007,-1.645,77.759,27.222,3.723
0.358,0.001,-1.626,85.510,24.841,3.906
0.350,0.018,-1.610,92.957,20.935,3.662
0.342,0.013,-1.598,99.854,14.526,2.991
0.333,0.008,-1.590,107.056,6.653,2.686
0.313,-0.010,-1.593,115.234,0.244,2.686
0.290,-0.019,-1.596,122.925,-2.319,2.808
0.261,-0.016,-1.581,132.324,-2.319,3.113
0.240,-0.010,-1.572,142.395,-3.357,2.441
0.217,-0.002,-1.568,151.672,-7.629,0.793
0.196,-0.000,-1.551,159.912,-14.038,-0.793
0.180,0.005,-1.521,168.213,-21.423,-2.563
0.167,0.011,-1.475,176.208,-30.457,-3.906
0.162,0.033,-1.424,183.899,-41.199,-5.432
0.154,0.040,-1.378,189.331,-52.246,-6.958
0.144,0.054,-1.329,193.848,-60.852,-8.179
0.138,0.072,-1.277,199.158,-65.796,-8.667
0.128,0.066,-1.236,203.186,-68.115,-10.132
0.139,0.081,-1.195,207.397,-68.604,-12.695
0.147,0.105,-1.149,211.853,-70.129,-14.404
0.159,0.118,-1.096,215.942,-76.599,-16.418
0.169,0.125,-1.048,219.238,-85.571,-18.921
0.191,0.137,-0.986,221.619,-93.445,-21.240
0.197,0.148,-0.923,224.304,-101.624,-22.278
0.214,0.177,-0.850,226.013,-107.666,-21.790
0.212,0.195,-0.786,228.210,-110.596,-21.240

-0.465,-0.784,2.293,201.416,-126.587,-14.160
-0.684,-0.916,2.794,175.354,-121.155,-21.423
-0.795,-1.049,3.365,140.320,-111.145,-30.762
-0.822,-1.109,3.803,96.558,-93.506,-40.710
-0.662,-1.046,3.891,36.621,-63.171,-47.363
-0.396,-0.851,3.482,-23.560,-23.376,-44.373
-0.223,-0.773,2.780,-81.726,17.334,-25.146
-0.147,-0.632,2.160,-119.080,53.345,-0.305
-0.045,-0.471,1.584,-130.554,86.304,21.362
0.010,-0.317,1.240,-128.479,112.854,37.415
0.065,-0.129,1.005,-121.277,127.075,48.035
0.113,0.030,0.886,-118.652,128.296,53.406
0.131,0.162,0.807,-123.535,116.943,52.490
0.153,0.260,0.750,-133.057,97.839,45.776
0.170,0.313,0.701,-142.639,78.552,36.133
0.194,0.342,0.678,-148.193,63.904,27.161
0.205,0.350,0.673,-149.231,56.030,21.301
0.216,0.353,0.672,-146.606,54.810,18.188
0.217,0.342,0.671,-142.334,57.068,17.578
0.212,0.334,0.669,-137.817,61.279,18.860
0.204,0.329,0.664,-133.118,65.796,18.921
0.200,0.324,0.661,-129.822,69.580,17.517
0.207,0.329,0.650,-127.991,71.533,14.771
0.217,0.336,0.640,-128.479,71.533,11.169
0.233,0.341,0.628,-131.287,70.740,8.179
0.245,0.355,0.608,-134.949,70.129,5.798
0.257,0.363,0.592,-138.733,70.129,3.845
0.271,0.378,0.565,-140.930,71.106,2.014
0.284,0.393,0.544,-142.212,74.036,0.549
0.295,0.405,0.527,-143.188,77.942,-1.343
0.308,0.417,0.513,-144.775,81.055,-2.686
0.330,0.423,0.495,-147.278,83.069,-3.967
0.339,0.422,0.467,-149.292,84.778,-5.249
0.359,0.430,0.430,-148.682,86.731,-5.981
0.371,0.437,0.399,-147.400,88.928,-6.714
0.384,0.439,0.370,-146.851,91.431,-6.836
0.396,0.442,0.342,-146.729,93.811,-6.958
0.409,0.444,0.311,-146.851,96.008,-6.714
0.423,0.452,0.277,-146.851,97.961,-5.493
0.425,0.467,0.250,-147.339,99.121,-4.150
0.425,0.480,0.229,-148.560,97.900,-3.906
0.433,0.493,0.210,-150.085,95.520,-4.333
0.442,0.488,0.215,-152.710,93.872,-4.517
0.454,0.483,0.222,-155.334,93.933,-3.662
0.457,0.478,0.230,-158.508,96.252,-1.099
0.441,0.449,0.220,-161.438,98.328,2.563
0.424,0.452,0.190,-164.612,99.182,5.676
0.412,0.434,0.164,-171.753,100.708,8.789
0.389,0.422,0.126,-178.955,101.685,12.146
0.380,0.405,0.082,-184.204,104.187,14.832
0.358,0.391,0.040,-187.561,109.924,17.151
0.337,0.375,0.005,-189.453,116.455,19.165
0.314,0.377,-0.034,-191.833,120.667,20.386
0.280,0.344,-0.057,-197.693,121.826,20.386
0.266,0.336,-0.097,-205.261,117.310,18.799
0.262,0.319,-0.132,-214.478,107.361,15.686
0.256,0.271,-0.156,-222.900,96.252,11.536
0.266,0.256,-0.205,-226.868,88.928,7.080
0.271,0.199,-0.235,-230.652,91.003,4.028
0.263,0.172,-0.266,-233.704,102.844,5.737
0.233,0.137,-0.294,-238.098,116.821,9.949
0.210,0.108,-0.317,-245.483,123.657,13.611
0.187,0.087,-0.369,-254.150,120.361,13.428
0.178,0.055,-0.417,-263.855,110.840,9.766
0.183,0.026,-0.496,-271.973,102.417,3.906
0.176,-0.031,-0.554,-280.518,98.877,-1.770
0.172,-0.100,-0.614,-285.217,102.295,-4.578
0.158,-0.147,-0.726,-283.264,114.380,-6.104
0.178,-0.187,-0.776,-282.898,125.549,-5.554
0.167,-0.247,-0.891,-284.729,134.277,-1.953
0.126,-0.294,-1.006,-289.124,143.250,5.066
0.117,-0.352,-1.161,-296.021,148.804,10.742
0.009,-0.480,-1.229,-304.626,147.278,12.207
0.079,-0.513,-1.521,-320.618,149.597,16.663
0.038,-0.590,-1.658,-314.087,138.855,17.517
0.023,-0.592,-1.896,-305.237,120.056,12.146
0.081,-0.596,-2.076,-301.514,107.544,7.568
0.098,-0.611,-2.218,-287.903,89.966,-0.488
0.171,-0.605,-2.311,-264.709,69.519,-6.287
0.203,-0.756,-2.405,-233.093,47.974,-6.714
0.241,-0.741,-2.500,-185.669,31.372,0.977
0.268,-0.647,-2.641,-131.226,27.466,9.888
0.288,-0.596,-2.628,-86.243,31.250,10.864
0.302,-0.548,-2.576,-44.861,32.776,5.127
0.308,-0.498,-2.468,-8.301,30.212,-0.366
0.314,-0.445,-2.335,19.836,27.039,-1.282
0.292,-0.390,-2.195,42.847,23.437,-1.282
0.280,-0.312,-2.060,61.096,20.752,-0.244
0.271,-0.231,-1.935,73.975,18.311,0.000
0.283,-0.163,-1.838,81.726,15.930,-0.977
0.300,-0.122,-1.762,88.318,12.085,-2.563
0.329,-0.100,-1.703,94.788,7.263,-3.662
0.342,-0.093,-1.659,102.661,0.977,-5.005
0.351,-0.076,-1.615,110.168,-4.089,-4.944
0.340,-0.072,-1.591,115.356,-8.484,-4.395
0.324,-0.089,-1.560,117.859,-11.597,-3.662
0.303,-0.073,-1.530,123.291,-14.648,-3.113
0.283,-0.057,-1.492,129.639,-18.494,-2.930
0.263,-0.078,-1.464,132.629,-23.132,-2.502
0.246,-0.097,-1.451,133.545,-27.588,-1.221
0.226,-0.085,-1.450,135.071,-31.799,1.282
0.203,-0.080,-1.433,138.428,-36.926,3.357
0.176,-0.083,-1.420,142.334,-43.396,3.784
0.161,-0.080,-1.403,148.376,-51.453,3.418
0.138,-0.100,-1.386,155.640,-60.364,2.441
0.117,-0.100,-1.366,163.635,-67.810,1.465
0.105,-0.078,-1.337,172.424,-74.341,-0.183
0.094,-0.078,-1.295,180.054,-81.055,-2.625
0.091,-0.074,-1.258,187.256,-86.060,-3.784
0.088,-0.063,-1.208,194.885,-89.294,-5.188
0.103,-0.054,-1.160,201.355,-94.177,-6.775
0.118,-0.042,-1.108,206.055,-99.854,-7.202
0.130,-0.021,-1.047,209.900,-105.591,-5.798
0.133,0.001,-0.994,211.914,-111.023,-4.822
0.149,0.013,-0.963,212.585,-114.929,-5.188
0.154,0.050,-0.923,214.722,-116.577,-5.249
0.178,0.090,-0.898,218.262,-119.446,-5.432
0.178,0.106,-0.844,222.168,-122.864,-6.104
0.192,0.144,-0.801,228.455,-127.136,-7.202

-0.486,-0.717,2.059,239.685,-133.972,-20.203
-0.704,-0.904,2.612,212.952,-141.663,-25.513
-0.944,-1.074,3.176,178.162,-148.621,-34.607
-1.115,-1.268,3.700,135.010,-140.320,-48.401
-0.985,-1.349,4.000,83.923,-102.417,-59.998
-0.692,-1.147,3.984,22.827,-43.030,-61.707
-0.362,-0.951,3.428,-43.213,6.592,-46.997
-0.234,-0.865,2.652,-101.013,47.546,-15.930
-0.182,-0.708,1.959,-130.127,82.275,12.817
-0.109,-0.534,1.419,-137.390,115.112,32.593
-0.041,-0.354,1.066,-135.742,139.099,46.509
0.020,-0.181,0.905,-128.540,149.231,55.542
0.066,-0.018,0.828,-124.268,141.418,58.655
0.083,0.113,0.789,-127.258,121.399,55.603
0.103,0.201,0.771,-137.085,99.731,47.302
0.123,0.236,0.743,-146.729,83.008,36.072
0.150,0.249,0.720,-151.672,72.327,26.917
0.167,0.262,0.698,-151.794,67.688,22.583
0.165,0.264,0.693,-149.170,68.359,21.362
0.161,0.266,0.671,-144.287,71.655,21.362
0.160,0.275,0.647,-138.428,75.928,21.057
0.166,0.280,0.630,-134.644,80.566,20.264
0.177,0.291,0.619,-133.057,83.679,18.372
0.195,0.304,0.610,-133.362,85.144,16.357
0.206,0.318,0.603,-135.742,85.999,14.587
0.227,0.336,0.593,-139.587,85.938,12.756
0.248,0.353,0.578,-144.836,85.510,10.986
0.266,0.380,0.555,-150.513,85.205,9.460
0.282,0.396,0.528,-156.311,85.327,7.324
0.300,0.403,0.506,-161.377,85.510,4.944
0.313,0.407,0.486,-164.551,85.327,2.075
0.333,0.417,0.447,-163.940,85.266,-0.793
0.355,0.421,0.425,-160.889,87.036,-3.296
0.376,0.430,0.409,-156.860,90.271,-5.005
0.388,0.429,0.403,-154.236,92.651,-6.348
0.404,0.428,0.401,-152.222,93.872,-7.385
0.430,0.432,0.393,-152.405,94.055,-7.568
0.447,0.433,0.378,-155.151,94.543,-6.104
0.462,0.432,0.354,-158.813,97.107,-3.662
0.479,0.428,0.331,-162.415,100.830,-0.549
0.479,0.427,0.303,-165.710,104.248,4.639
0.473,0.430,0.283,-168.579,106.812,10.193
0.464,0.433,0.258,-171.997,108.887,14.221
0.446,0.436,0.240,-176.636,110.107,16.846
0.438,0.435,0.225,-182.800,109.680,18.433
0.425,0.428,0.203,-190.125,107.788,19.409
0.414,0.414,0.175,-197.510,105.896,20.020
0.397,0.400,0.146,-203.003,105.835,20.996
0.380,0.384,0.107,-207.886,107.483,23.132
0.352,0.372,0.052,-213.257,108.337,25.024
0.323,0.360,-0.001,-218.201,107.910,26.062
0.307,0.354,-0.053,-223.022,105.713,25.269
0.296,0.339,-0.107,-226.562,101.196,22.766
0.285,0.315,-0.157,-229.858,98.083,20.203
0.276,0.285,-0.197,-231.934,99.670,18.005
0.265,0.271,-0.222,-233.887,104.248,17.700
0.247,0.262,-0.265,-236.572,109.802,18.494
0.258,0.245,-0.318,-240.051,114.502,18.677
0.222,0.197,-0.350,-241.211,112.061,13.306
0.220,0.168,-0.395,-246.277,108.887,11.597
0.230,0.135,-0.456,-253.235,103.394,12.085
0.225,0.096,-0.533,-259.155,98.145,12.451
0.218,0.032,-0.582,-264.465,98.999,13.062
0.212,0.002,-0.642,-266.602,104.248,13.611
0.199,-0.022,-0.691,-266.968,111.389,13.489
0.193,-0.063,-0.785,-267.029,119.202,12.756
0.197,-0.069,-0.837,-267.273,123.901,10.315
0.201,-0.092,-0.899,-268.250,122.009,7.446
0.200,-0.125,-0.967,-271.545,116.577,4.333
0.190,-0.141,-1.021,-276.245,109.497,1.099
0.224,-0.187,-1.063,-281.433,99.487,-0.977
0.161,-0.267,-1.075,-286.621,90.698,-2.136
0.162,-0.275,-1.249,-290.710,89.600,-1.648
0.176,-0.357,-1.257,-284.302,92.834,-1.465
0.105,-0.435,-1.309,-271.484,86.121,-3.601
0.122,-0.459,-1.442,-267.212,87.158,0.244
0.141,-0.475,-1.520,-258.057,79.163,0.916
0.178,-0.507,-1.639,-244.446,62.683,-3.479
0.211,-0.568,-1.705,-219.971,43.579,-7.385
0.230,-0.587,-1.838,-192.505,29.480,-9.216
0.268,-0.582,-1.910,-170.410,22.461,-7.874
0.273,-0.586,-2.010,-148.926,15.747,-8.118
0.281,-0.560,-2.074,-126.465,13.550,-8.728
0.274,-0.540,-2.111,-101.868,14.832,-10.498
0.289,-0.519,-2.127,-77.637,19.470,-13.855
0.317,-0.507,-2.109,-55.359,23.926,-16.907
0.364,-0.495,-2.086,-37.903,25.940,-17.273
0.387,-0.478,-2.046,-22.827,22.705,-15.259
0.395,-0.459,-2.017,-7.629,17.578,-12.390
0.413,-0.413,-2.010,9.644,14.404,-8.484
0.397,-0.385,-1.994,28.320,15.259,-5.798
0.374,-0.347,-1.975,46.509,19.714,-3.662
0.348,-0.294,-1.943,62.378,24.536,-2.930
0.330,-0.249,-1.904,74.524,26.550,-2.380
0.324,-0.239,-1.862,83.557,23.315,-2.075
0.317,-0.237,-1.830,90.454,16.357,-1.770
0.305,-0.229,-1.811,98.877,8.911,-1.282
0.283,-0.238,-1.788,107.788,3.113,0.000
0.270,-0.230,-1.762,115.906,-0.977,0.610
0.253,-0.220,-1.737,125.732,-5.737,0.854
0.233,-0.222,-1.705,137.024,-11.902,0.671
0.218,-0.211,-1.670,148.315,-18.799,-0.122
0.196,-0.219,-1.628,158.447,-26.062,-1.404
0.180,-0.220,-1.591,167.114,-31.982,-2.014
0.156,-0.225,-1.546,174.744,-35.217,-1.709
0.138,-0.205,-1.504,182.190,-38.208,-1.892
0.118,-0.192,-1.461,189.758,-45.044,-2.991
0.110,-0.204,-1.417,195.679,-55.176,-4.517
0.110,-0.191,-1.369,201.355,-65.247,-5.676
0.111,-0.170,-1.312,207.825,-74.646,-5.798
0.095,-0.190,-1.266,211.731,-84.290,-5.859
0.093,-0.170,-1.222,215.393,-91.431,-6.592
0.101,-0.140,-1.169,221.741,-96.619,-7.629
0.093,-0.137,-1.109,226.807,-103.210,-8.911
0.101,-0.122,-1.051,230.713,-108.459,-10.681
0.119,-0.083,-0.993,236.023,-112.183,-12.634
0.122,-0.089,-0.929,238.831,-117.249,-14.221
0.130,-0.070,-0.887,240.295,-121.155,-15.442
0.151,-0.039,-0.845,244.141,-126.404,-16.113

-0.649,-0.857,2.097,247.070,-139.832,-4.822
-0.911,-1.083,2.641,225.708,-138.428,-18.066
-1.192,-1.297,3.331,190.369,-139.954,-34.485
-1.346,-1.512,3.998,139.038,-134.094,-49.927
-1.125,-1.455,4.000,82.275,-99.915,-66.345
-0.727,-1.146,4.000,24.536,-44.556,-78.125
-0.393,-1.029,3.642,-45.715,5.066,-70.496
-0.313,-0.905,2.734,-112.366,55.054,-37.048
-0.214,-0.765,1.860,-145.752,97.595,-1.831
-0.140,-0.620,1.271,-151.001,133.728,23.865
-0.081,-0.432,1.003,-139.343,156.616,39.856
-0.003,-0.227,0.872,-124.023,164.368,49.622
0.048,-0.068,0.837,-119.141,155.151,52.734
0.059,0.055,0.838,-126.770,134.094,48.706
0.093,0.150,0.849,-141.907,111.633,40.161
0.136,0.211,0.830,-158.569,96.069,29.724
0.173,0.226,0.793,-172.791,88.623,22.644
0.204,0.237,0.744,-183.044,86.853,20.874
0.221,0.239,0.689,-188.660,88.501,22.644
0.217,0.236,0.638,-189.880,92.346,25.391
0.210,0.233,0.597,-186.157,97.656,28.503
0.201,0.237,0.563,-178.955,102.295,30.029
0.201,0.245,0.542,-172.058,106.018,30.090
0.198,0.256,0.518,-165.955,107.910,28.564
0.202,0.274,0.500,-161.255,107.666,25.208
0.223,0.293,0.490,-160.583,106.140,20.264
0.240,0.303,0.481,-163.147,104.065,14.709
0.265,0.318,0.461,-166.687,101.746,10.315
0.293,0.327,0.442,-170.349,100.525,7.812
0.306,0.344,0.419,-174.744,100.769,6.165
0.318,0.350,0.400,-180.481,101.990,4.761
0.330,0.352,0.375,-186.768,102.661,3.357
0.345,0.350,0.342,-191.040,103.027,1.770
0.356,0.361,0.301,-191.772,103.394,0.122
0.371,0.369,0.268,-191.406,104.248,-1.648
0.380,0.361,0.239,-190.308,106.506,-2.808
0.387,0.359,0.197,-186.829,110.107,-2.930
0.399,0.374,0.171,-183.044,115.417,-1.892
0.408,0.383,0.154,-181.946,120.178,0.488
0.409,0.393,0.144,-184.204,123.474,3.418
0.400,0.393,0.128,-190.063,124.329,5.859
0.392,0.397,0.108,-198.608,122.131,7.141
0.392,0.401,0.075,-208.801,117.065,7.324
0.387,0.397,0.036,-219.666,111.267,5.981
0.396,0.394,-0.015,-230.164,108.704,3.906
0.387,0.357,-0.084,-239.380,110.901,3.601
0.388,0.345,-0.153,-242.249,116.272,5.615
0.380,0.336,-0.210,-240.540,124.084,8.850
0.349,0.302,-0.245,-236.816,131.775,11.230
0.338,0.305,-0.267,-232.483,134.338,11.719
0.335,0.292,-0.302,-231.995,129.089,9.949
0.330,0.263,-0.340,-236.206,119.690,8.545
0.331,0.254,-0.386,-242.798,109.863,7.935
0.320,0.200,-0.483,-249.390,105.347,6.287
0.298,0.174,-0.542,-250.854,113.586,4.272
0.276,0.152,-0.589,-249.329,130.859,2.869
0.257,0.134,-0.631,-250.732,146.545,1.831
0.247,0.119,-0.684,-255.981,153.442,0.488
0.240,0.069,-0.711,-264.709,149.109,-1.831
0.264,0.042,-0.741,-272.827,131.775,-4.150
0.299,0.005,-0.760,-281.494,107.117,-6.653
0.301,-0.038,-0.803,-289.307,84.961,-7.446
0.325,-0.095,-0.828,-294.189,68.481,-5.920
0.298,-0.154,-0.884,-293.213,63.232,-3.784
0.285,-0.221,-0.905,-287.537,73.608,-2.014
0.232,-0.282,-0.889,-278.259,93.506,0.183
0.222,-0.277,-1.038,-270.508,109.375,4.150
0.252,-0.378,-1.046,-265.564,119.690,7.874
0.202,-0.441,-1.063,-255.310,106.567,1.587
0.271,-0.457,-1.232,-254.211,92.163,4.761
0.298,-0.506,-1.328,-254.089,77.026,6.958
0.283,-0.534,-1.429,-249.084,66.650,5.676
0.264,-0.617,-1.538,-238.708,64.087,6.470
0.221,-0.656,-1.612,-218.628,60.852,4.150
0.193,-0.652,-1.733,-198.547,61.768,0.122
0.182,-0.627,-1.840,-181.458,63.843,-4.333
0.177,-0.651,-1.912,-169.250,65.186,-10.742
0.219,-0.685,-1.951,-157.959,61.768,-17.395
0.272,-0.692,-1.972,-144.775,51.025,-21.790
0.336,-0.716,-1.974,-130.798,37.720,-21.118
0.372,-0.743,-1.948,-110.474,22.156,-16.846
0.385,-0.729,-1.916,-83.862,9.277,-10.864
0.379,-0.708,-1.870,-57.983,1.831,-4.517
0.364,-0.667,-1.832,-31.799,-0.610,0.183
0.352,-0.593,-1.793,-5.798,1.221,3.113
0.343,-0.551,-1.716,15.076,6.348,2.563
0.321,-0.521,-1.661,37.415,9.460,2.197
0.335,-0.504,-1.638,53.650,10.254,2.563
0.333,-0.449,-1.610,51.331,19.165,-1.221
0.327,-0.404,-1.592,58.411,22.705,-2.441
0.315,-0.391,-1.582,67.078,22.278,-2.563
0.302,-0.376,-1.570,78.064,18.005,-2.808
0.287,-0.387,-1.566,88.806,12.207,-2.930
0.285,-0.365,-1.573,99.792,6.226,-2.869
0.264,-0.346,-1.554,112.122,-0.549,-3.113
0.263,-0.340,-1.547,125.671,-6.958,-2.991
0.238,-0.339,-1.526,136.902,-12.268,-3.357
0.221,-0.332,-1.491,145.264,-15.259,-2.930
0.205,-0.322,-1.458,153.442,-18.127,-2.136
0.196,-0.302,-1.428,162.354,-23.254,-2.197
0.175,-0.291,-1.398,168.152,-28.076,-2.686
0.164,-0.291,-1.376,169.861,-32.227,-2.441
0.154,-0.290,-1.353,171.570,-34.790,-1.831
0.141,-0.292,-1.342,175.171,-37.231,-2.014
0.126,-0.294,-1.330,180.176,-39.795,-2.991
0.130,-0.276,-1.297,187.805,-42.542,-3.845
0.134,-0.218,-1.266,196.350,-47.913,-5.798
0.141,-0.193,-1.211,200.745,-54.199,-6.897
0.143,-0.189,-1.167,202.881,-61.035,-7.385
0.154,-0.165,-1.128,204.224,-67.932,-7.019
0.157,-0.144,-1.095,207.458,-75.806,-7.324
0.186,-0.073,-1.079,213.623,-84.961,-6.897
0.189,-0.038,-1.056,216.553,-90.454,-6.287
0.196,-0.032,-0.999,216.797,-92.102,-5.737
0.209,0.002,-0.953,220.459,-94.727,-6.104
0.214,0.021,-0.915,224.182,-98.755,-7.080
0.229,0.038,-0.877,225.647,-99.731,-8.179
0.236,0.059,-0.846,228.333,-100.403,-8.850
0.275,0.123,-0.831,232.178,-102.234,-8.911

-0.464,-0.650,2.386,193.604,-134.583,-11.475
-0.661,-0.799,2.813,160.034,-126.526,-12.085
-0.800,-0.925,3.319,116.760,-106.934,-17.822
-0.780,-0.993,3.683,75.195,-76.172,-25.940
-0.584,-0.868,3.755,30.762,-35.950,-34.790
-0.360,-0.707,3.427,-24.048,-4.578,-39.734
-0.191,-0.639,2.759,-81.848,22.217,-26.306
-0.154,-0.539,2.170,-126.770,52.002,-4.150
-0.076,-0.417,1.640,-145.996,81.177,11.963
-0.012,-0.273,1.311,-147.339,104.858,23.010
0.021,-0.145,1.097,-141.479,117.798,30.823
0.058,-0.021,1.003,-135.559,119.141,35.461
0.080,0.113,0.949,-134.888,110.168,35.156
0.098,0.201,0.914,-141.968,97.656,31.677
0.113,0.256,0.881,-153.809,85.144,26.917
0.131,0.281,0.851,-165.710,74.707,21.484
0.144,0.298,0.816,-174.622,68.542,17.578
0.154,0.305,0.782,-179.199,67.383,15.808
0.161,0.300,0.743,-180.603,69.946,15.442
0.159,0.299,0.709,-179.138,75.012,15.564
0.153,0.297,0.663,-173.584,80.688,15.015
0.151,0.304,0.629,-166.382,85.388,13.062
0.159,0.313,0.591,-161.255,89.722,10.071
0.167,0.328,0.570,-159.302,93.140,6.714
0.181,0.339,0.553,-159.485,95.032,3.113
0.200,0.355,0.536,-162.048,94.910,-0.793
0.222,0.363,0.519,-166.626,93.628,-3.723
0.248,0.375,0.496,-173.523,92.102,-6.226
0.270,0.367,0.466,-181.335,90.576,-8.301
0.292,0.365,0.425,-187.866,89.722,-8.484
0.309,0.368,0.384,-191.772,90.576,-8.667
0.323,0.372,0.357,-195.129,93.018,-9.705
0.335,0.366,0.324,-198.242,96.069,-10.376
0.352,0.370,0.279,-198.669,98.572,-10.132
0.368,0.376,0.237,-196.289,100.037,-11.047
0.383,0.381,0.211,-193.848,102.295,-13.550
0.398,0.380,0.171,-193.665,105.103,-15.686
0.409,0.384,0.148,-195.984,105.835,-16.479
0.415,0.388,0.105,-197.876,105.652,-16.479
0.420,0.397,0.069,-199.219,106.934,-16.296
0.423,0.405,0.036,-201.660,108.276,-16.052
0.428,0.405,-0.002,-206.177,107.788,-15.137
0.428,0.405,-0.044,-212.769,106.995,-14.160
0.421,0.396,-0.088,-218.811,106.262,-13.123
0.414,0.394,-0.129,-223.633,104.370,-11.780
0.406,0.380,-0.186,-228.699,101.929,-11.230
0.390,0.360,-0.245,-234.253,102.295,-11.597
0.378,0.326,-0.296,-238.403,106.140,-12.024
0.379,0.312,-0.372,-239.319,110.474,-12.024
0.368,0.293,-0.450,-238.892,117.676,-11.780
0.344,0.263,-0.481,-236.511,131.836,-11.658
0.319,0.245,-0.585,-233.276,147.583,-11.536
0.311,0.232,-0.635,-229.858,156.738,-11.780
0.312,0.216,-0.672,-230.286,155.762,-13.916
0.326,0.186,-0.700,-234.741,144.348,-17.151
0.349,0.150,-0.723,-241.943,125.671,-20.264
0.375,0.115,-0.786,-249.023,105.652,-21.179
0.364,0.048,-0.841,-252.441,95.764,-19.897
0.370,0.027,-0.869,-248.169,99.182,-17.944
0.347,0.010,-0.917,-242.187,108.276,-16.785
0.342,-0.037,-0.912,-239.258,115.051,-15.747
0.338,-0.071,-0.915,-238.098,114.014,-15.503
0.366,-0.091,-0.943,-238.098,102.966,-15.869
0.304,-0.194,-0.886,-237.427,86.060,-17.517
0.416,-0.141,-0.953,-241.455,72.754,-13.000
0.378,-0.229,-0.912,-230.591,51.025,-11.169
0.334,-0.260,-0.914,-226.807,38.513,-10.437
0.367,-0.274,-0.938,-229.675,44.678,-3.174
0.325,-0.308,-0.955,-229.614,51.147,-2.075
0.275,-0.357,-0.994,-223.267,62.317,-2.686
0.228,-0.411,-1.050,-210.754,75.500,-3.662
0.241,-0.427,-1.093,-199.097,87.830,-6.409
0.258,-0.453,-1.180,-188.477,92.712,-9.094
0.295,-0.458,-1.257,-178.528,91.064,-9.521
0.346,-0.450,-1.327,-170.105,85.388,-9.460
0.332,-0.495,-1.382,-164.490,78.003,-9.644
0.358,-0.531,-1.414,-159.912,72.693,-6.531
0.342,-0.545,-1.446,-150.574,66.589,-2.991
0.322,-0.548,-1.468,-140.076,60.669,0.244
0.290,-0.553,-1.486,-130.493,55.664,4.822
0.245,-0.556,-1.513,-121.887,50.903,8.301
0.209,-0.566,-1.566,-113.281,47.852,8.362
0.186,-0.565,-1.621,-104.248,46.143,5.798
0.182,-0.562,-1.673,-94.055,44.617,2.258
0.197,-0.559,-1.716,-82.764,43.213,-1.221
0.224,-0.593,-1.730,-67.810,38.391,-3.784
0.266,-0.606,-1.752,-50.293,30.884,-5.493
0.305,-0.595,-1.777,-32.898,22.095,-4.578
0.322,-0.604,-1.783,-17.700,13.733,-2.686
0.319,-0.601,-1.780,-3.540,8.179,-0.183
0.308,-0.579,-1.772,12.146,4.639,2.014
0.288,-0.561,-1.770,27.344,3.723,2.930
0.291,-0.550,-1.737,41.138,3.723,2.625
0.281,-0.536,-1.719,53.955,4.578,1.404
0.273,-0.536,-1.707,67.749,6.287,-0.549
0.272,-0.512,-1.677,84.229,7.202,-2.747
0.270,-0.471,-1.689,101.685,5.981,-5.005
0.259,-0.455,-1.661,111.084,4.761,-4.517
0.241,-0.437,-1.633,118.225,2.319,-3.052
0.235,-0.435,-1.640,125.122,-2.686,-2.380
0.212,-0.440,-1.622,131.592,-8.423,-1.282
0.210,-0.424,-1.616,140.625,-14.893,-0.183
0.193,-0.421,-1.575,152.161,-22.400,-0.732
0.169,-0.431,-1.551,162.415,-28.503,-1.404
0.172,-0.420,-1.511,169.800,-34.668,-1.831
0.173,-0.400,-1.476,176.758,-41.809,-2.808
0.169,-0.386,-1.436,182.800,-48.828,-2.563
0.159,-0.388,-1.386,189.636,-54.810,-1.648
0.146,-0.390,-1.334,197.876,-59.937,-0.671
0.144,-0.363,-1.306,206.726,-65.247,-0.732
0.138,-0.351,-1.267,211.670,-69.580,-2.319
0.140,-0.341,-1.231,216.309,-72.815,-3.296
0.157,-0.306,-1.198,222.961,-77.393,-4.150
0.163,-0.266,-1.161,228.394,-83.069,-5.310
0.171,-0.231,-1.127,231.445,-91.553,-5.615
0.170,-0.228,-1.095,233.215,-102.112,-4.883
0.169,-0.218,-1.053,234.985,-108.459,-3.784
0.165,-0.185,-1.016,239.319,-110.840,-3.235
0.154,-0.178,-0.966,243.469,-112.427,-2.930

-0.644,-0.572,2.072,263.672,-135.376,14.282
-0.869,-0.728,2.574,247.070,-139.832,7.935
-1.104,-0.876,3.209,217.590,-140.076,-0.488
-1.273,-1.032,3.877,171.570,-122.925,-15.320
-1.092,-1.013,4.000,114.929,-77.820,-29.480
-0.812,-0.837,4.000,52.063,-26.794,-45.410
-0.508,-0.757,3.523,-28.259,12.451,-45.715
-0.398,-0.689,2.734,-100.830,46.509,-25.513
-0.288,-0.568,1.998,-140.442,73.242,-5.127
-0.196,-0.448,1.437,-153.076,98.450,6.042
-0.101,-0.330,1.159,-150.269,118.835,12.329
-0.027,-0.155,1.015,-139.099,129.272,16.907
0.036,-0.010,0.945,-130.920,127.930,22.278
0.070,0.095,0.913,-130.859,121.155,25.940
0.084,0.172,0.893,-137.512,111.450,26.917
0.104,0.231,0.869,-148.987,102.173,25.696
0.114,0.261,0.834,-161.133,95.703,23.499
0.128,0.274,0.791,-172.363,92.651,21.851
0.134,0.274,0.738,-180.359,92.712,20.752
0.134,0.265,0.687,-183.960,94.788,20.081
0.139,0.266,0.632,-183.289,97.290,19.958
0.138,0.269,0.587,-179.810,99.426,18.677
0.134,0.277,0.552,-174.561,101.746,16.296
0.138,0.295,0.523,-168.457,103.333,12.268
0.149,0.312,0.501,-164.062,103.333,7.141
0.169,0.329,0.491,-162.842,102.173,1.587
0.196,0.343,0.485,-164.490,100.342,-2.869
0.223,0.360,0.477,-167.969,98.877,-5.859
0.245,0.360,0.471,-173.828,99.915,-7.935
0.264,0.366,0.458,-181.091,103.638,-7.996
0.276,0.370,0.428,-190.125,108.521,-7.324
0.290,0.380,0.405,-200.378,114.075,-6.592
0.288,0.365,0.373,-210.571,118.835,-5.859
0.287,0.354,0.336,-218.079,120.728,-7.080
0.272,0.336,0.302,-221.985,121.643,-10.254
0.274,0.321,0.254,-220.825,119.629,-14.771
0.281,0.322,0.205,-220.093,115.723,-20.813
0.298,0.329,0.157,-219.543,109.802,-26.245
0.325,0.326,0.115,-220.276,102.539,-29.053
0.345,0.320,0.086,-220.093,95.642,-28.687
0.359,0.312,0.071,-218.018,93.079,-27.161
0.367,0.311,0.056,-215.576,96.924,-24.170
0.363,0.313,0.045,-214.783,105.591,-20.264
0.353,0.310,0.019,-216.003,115.479,-16.113
0.339,0.298,-0.017,-219.116,125.000,-12.817
0.323,0.281,-0.075,-223.633,134.583,-10.254
0.301,0.255,-0.145,-228.516,143.677,-7.812
0.284,0.242,-0.209,-232.361,149.780,-6.409
0.276,0.225,-0.281,-234.192,151.245,-6.592
0.283,0.213,-0.347,-236.694,147.827,-8.301
0.291,0.191,-0.394,-240.173,141.418,-10.742
0.297,0.162,-0.455,-243.164,133.545,-13.000
0.294,0.106,-0.517,-247.375,129.578,-14.099
0.297,0.073,-0.586,-251.953,133.545,-12.878
0.284,0.020,-0.640,-255.310,143.127,-10.315
0.251,-0.014,-0.694,-257.263,153.931,-6.897
0.246,-0.036,-0.748,-258.850,163.208,-3.540
0.212,-0.057,-0.822,-260.315,166.382,-2.808
0.227,-0.078,-0.861,-264.099,162.109,-2.930
0.229,-0.136,-0.924,-268.372,151.062,-3.418
0.230,-0.194,-0.975,-270.874,136.230,-3.479
0.207,-0.242,-1.031,-269.531,125.977,-3.296
0.221,-0.268,-1.074,-265.381,119.812,-3.235
0.186,-0.317,-1.095,-261.536,113.708,-4.456
0.179,-0.309,-1.217,-258.606,104.736,-5.127
0.266,-0.350,-1.230,-259.094,101.379,-2.380
0.181,-0.407,-1.196,-248.352,83.313,-5.676
0.223,-0.423,-1.257,-248.474,75.806,-0.854
0.239,-0.477,-1.274,-252.563,72.205,5.859
0.211,-0.525,-1.340,-252.319,68.604,8.606
0.227,-0.559,-1.379,-244.507,69.885,11.658
0.193,-0.621,-1.399,-228.821,64.819,9.033
0.186,-0.676,-1.506,-209.473,60.059,6.042
0.216,-0.648,-1.569,-184.998,51.636,3.662
0.250,-0.604,-1.625,-162.842,39.978,0.427
0.263,-0.613,-1.629,-145.447,29.053,-1.770
0.271,-0.604,-1.632,-129.822,21.057,-2.197
0.259,-0.624,-1.635,-117.004,18.188,-1.465
0.223,-0.654,-1.645,-107.605,20.996,-0.366
0.221,-0.655,-1.674,-99.854,27.649,1.282
0.221,-0.627,-1.712,-86.609,30.579,-0.732
0.246,-0.584,-1.765,-72.754,32.959,-3.662
0.266,-0.581,-1.779,-58.167,34.119,-7.141
0.025,-0.201,-2.160,-39.429,33.447,-9.460
0.736,-0.650,-2.772,-2.075,95.886,11.902
0.394,-0.839,-1.849,42.908,147.583,33.325
0.329,-0.976,-1.405,70.862,16.418,7.080
0.148,-0.442,-1.353,38.940,-54.810,-17.944
0.167,-0.139,-1.675,10.437,-75.500,-22.217
0.223,-0.249,-1.734,4.822,-48.828,-6.409
0.225,-0.340,-1.700,24.963,2.441,-0.488
0.239,-0.312,-1.625,68.481,26.428,-9.766
0.279,-0.333,-1.519,90.698,30.090,-16.724
0.297,-0.386,-1.511,89.355,24.597,-15.076
0.304,-0.403,-1.569,83.252,18.005,-9.216
0.289,-0.404,-1.616,85.449,11.536,-5.371
0.262,-0.402,-1.628,97.412,3.357,-3.967
0.218,-0.402,-1.610,112.671,-5.188,-4.272
0.172,-0.400,-1.591,125.854,-11.414,-3.601
0.161,-0.372,-1.569,136.780,-17.090,-2.869
0.145,-0.347,-1.534,142.822,-20.691,-2.686
0.129,-0.357,-1.493,147.095,-24.475,-2.991
0.120,-0.347,-1.449,153.137,-29.541,-3.479
0.112,-0.352,-1.409,159.668,-35.583,-4.517
0.116,-0.330,-1.379,165.771,-41.443,-5.554
0.129,-0.327,-1.338,169.067,-45.837,-5.798
0.141,-0.304,-1.295,172.729,-51.147,-4.456
0.148,-0.297,-1.264,176.208,-59.692,-3.296
0.169,-0.275,-1.228,178.162,-68.176,-0.488
0.165,-0.245,-1.198,180.420,-72.449,2.319
0.162,-0.226,-1.155,184.753,-76.050,3.845
0.165,-0.206,-1.111,189.270,-79.712,3.418
0.180,-0.174,-1.068,193.604,-83.557,1.404
0.194,-0.153,-1.027,197.205,-87.585,-0.366
0.188,-0.148,-0.990,199.158,-90.515,-0.549
0.189,-0.135,-0.964,201.050,-90.454,0.610
0.193,-0.113,-0.945,203.918,-89.172,1.282
0.221,-0.060,-0.901,207.642,-90.698,2.014
0.226,-0.016,-0.887,210.937,-95.032,1.282

-0.544,-0.633,2.420,272.095,-155.151,-15.381
-0.750,-0.752,2.959,240.173,-158.752,-20.020
-0.922,-0.911,3.571,199.219,-148.560,-27.466
-0.906,-1.000,3.971,150.696,-110.962,-39.246
-0.736,-0.925,4.000,90.271,-56.885,-53.955
-0.455,-0.780,3.696,19.470,-11.292,-55.603
-0.248,-0.702,2.958,-56.335,29.602,-33.752
-0.182,-0.594,2.338,-111.450,60.791,-8.545
-0.090,-0.452,1.714,-136.597,86.548,10.681
-0.032,-0.306,1.309,-146.118,109.497,22.888
0.037,-0.159,1.018,-144.836,127.075,31.799
0.099,0.007,0.882,-140.198,133.972,39.246
0.142,0.137,0.799,-138.428,128.540,43.335
0.158,0.237,0.748,-142.578,114.807,45.166
